time_period,time_identifier,geographic_level,country_code,country_name,academic_year,YAG,qualification_level,country_of_domicile_grouped,subject_name,grads,grads_uk,earnings_include,earnings_LQ,earnings_median,earnings_UQ,earnings_LQ_RTE,earnings_median_RTE,earnings_UQ_RTE
201516,Tax year,National,K02000001,United Kingdom,2004/2005,10 YAG,First-degree,UK,Total,222895,215100,155260,19000,30400,42100,19000,30400,42100
201516,Tax year,National,K02000001,United Kingdom,2004/2005,10 YAG,Level 7 (research),UK,Total,1510,1440,870,22300,35500,48700,22300,35500,48700
201516,Tax year,National,K02000001,United Kingdom,2004/2005,10 YAG,Level 7 (taught),UK,Total,93685,89840,59130,19800,34000,45800,19800,34000,45800
201516,Tax year,National,K02000001,United Kingdom,2004/2005,10 YAG,Level 8,UK,Total,7730,7300,4655,28900,42100,55600,28900,42100,55600
201516,Tax year,National,K02000001,United Kingdom,2009/2010,5 YAG,First-degree,UK,Total,253445,246635,179315,17900,25600,33700,17900,25600,33700
201516,Tax year,National,K02000001,United Kingdom,2009/2010,5 YAG,Level 7 (research),UK,Total,1515,1445,860,21600,31800,42500,21600,31800,42500
201516,Tax year,National,K02000001,United Kingdom,2009/2010,5 YAG,Level 7 (taught),UK,Total,97735,94580,64635,21200,31100,41400,21200,31100,41400
201516,Tax year,National,K02000001,United Kingdom,2009/2010,5 YAG,Level 8,UK,Total,8575,8105,5580,27300,36600,46800,27300,36600,46800
201516,Tax year,National,K02000001,United Kingdom,2011/2012,3 YAG,First-degree,UK,Total,279330,273070,194390,16500,22700,29300,16500,22700,29300
201516,Tax year,National,K02000001,United Kingdom,2011/2012,3 YAG,Level 7 (research),UK,Total,2040,1960,885,20200,30000,40300,20200,30000,40300
201516,Tax year,National,K02000001,United Kingdom,2011/2012,3 YAG,Level 7 (taught),UK,Total,106605,103780,69955,21200,28900,39200,21200,28900,39200
201516,Tax year,National,K02000001,United Kingdom,2011/2012,3 YAG,Level 8,UK,Total,8990,8540,5820,26700,34400,42800,26700,34400,42800
201516,Tax year,National,K02000001,United Kingdom,2013/2014,1 YAG,First-degree,UK,Total,304030,298660,198335,13200,18700,24500,13200,18700,24500
201516,Tax year,National,K02000001,United Kingdom,2013/2014,1 YAG,Level 7 (research),UK,Total,2105,2050,920,20100,28400,37000,20100,28400,37000
201516,Tax year,National,K02000001,United Kingdom,2013/2014,1 YAG,Level 7 (taught),UK,Total,103585,101710,70945,20400,25300,35900,20400,25300,35900
201516,Tax year,National,K02000001,United Kingdom,2013/2014,1 YAG,Level 8,UK,Total,9760,9330,6700,25300,31500,39500,25300,31500,39500
201617,Tax year,National,K02000001,United Kingdom,2005/2006,10 YAG,First-degree,UK,Total,229815,222220,160465,19000,30300,42300,18600,29600,41400
201617,Tax year,National,K02000001,United Kingdom,2005/2006,10 YAG,Level 7 (research),UK,Total,1845,1740,1090,22600,35400,52900,22100,34600,51700
201617,Tax year,National,K02000001,United Kingdom,2005/2006,10 YAG,Level 7 (taught),UK,Total,94375,90465,60450,19700,33900,46000,19300,33200,45000
201617,Tax year,National,K02000001,United Kingdom,2005/2006,10 YAG,Level 8,UK,Total,8050,7570,4820,29900,42300,56900,29300,41400,55700
201617,Tax year,National,K02000001,United Kingdom,2010/2011,5 YAG,First-degree,UK,Total,264445,257620,186800,18200,25900,34300,17800,25300,33500
201617,Tax year,National,K02000001,United Kingdom,2010/2011,5 YAG,Level 7 (research),UK,Total,1630,1550,955,22300,31000,42000,21800,30300,41000
201617,Tax year,National,K02000001,United Kingdom,2010/2011,5 YAG,Level 7 (taught),UK,Total,106030,102725,70345,21500,31400,42000,21100,30700,41000
201617,Tax year,National,K02000001,United Kingdom,2010/2011,5 YAG,Level 8,UK,Total,8960,8495,5805,26200,36500,46700,25600,35700,45700
201617,Tax year,National,K02000001,United Kingdom,2012/2013,3 YAG,First-degree,UK,Total,289870,283450,201685,17200,23000,29900,16800,22500,29300
201617,Tax year,National,K02000001,United Kingdom,2012/2013,3 YAG,Level 7 (research),UK,Total,2155,2070,965,21500,31400,43100,21100,30700,42100
201617,Tax year,National,K02000001,United Kingdom,2012/2013,3 YAG,Level 7 (taught),UK,Total,107145,104315,72030,21500,28800,39400,21100,28200,38500
201617,Tax year,National,K02000001,United Kingdom,2012/2013,3 YAG,Level 8,UK,Total,10135,9595,6755,26300,34300,43400,25700,33500,42500
201617,Tax year,National,K02000001,United Kingdom,2014/2015,1 YAG,First-degree,UK,Total,282830,278045,179670,14200,19700,25600,13900,19300,25000
201617,Tax year,National,K02000001,United Kingdom,2014/2015,1 YAG,Level 7 (research),UK,Total,2320,2255,1025,19700,28100,37600,19300,27500,36700
201617,Tax year,National,K02000001,United Kingdom,2014/2015,1 YAG,Level 7 (taught),UK,Total,102410,100620,70015,20800,25900,36500,20300,25300,35700
201617,Tax year,National,K02000001,United Kingdom,2014/2015,1 YAG,Level 8,UK,Total,10415,10030,7135,25600,31800,39400,25000,31000,38500
201718,Tax year,National,K02000001,United Kingdom,2006/2007,10 YAG,First-degree,UK,Total,230695,222670,162840,19300,31000,43400,18500,29600,41500
201718,Tax year,National,K02000001,United Kingdom,2006/2007,10 YAG,Level 7 (research),UK,Total,1510,1415,880,21900,36500,53700,20900,34900,51300
201718,Tax year,National,K02000001,United Kingdom,2006/2007,10 YAG,Level 7 (taught),UK,Total,95390,91510,61625,19700,33900,46000,18800,32400,43900
201718,Tax year,National,K02000001,United Kingdom,2006/2007,10 YAG,Level 8,UK,Total,8475,7935,5285,28800,42000,55800,27600,40100,53400
201718,Tax year,National,K02000001,United Kingdom,2011/2012,5 YAG,First-degree,UK,Total,279335,271000,198710,19000,26500,35000,18100,25300,33500
201718,Tax year,National,K02000001,United Kingdom,2011/2012,5 YAG,Level 7 (research),UK,Total,2040,1935,1220,22600,32100,43100,21600,30700,41200
201718,Tax year,National,K02000001,United Kingdom,2011/2012,5 YAG,Level 7 (taught),UK,Total,106600,102985,71210,22300,32100,42700,21300,30700,40800
201718,Tax year,National,K02000001,United Kingdom,2011/2012,5 YAG,Level 8,UK,Total,8990,8465,5840,27000,36900,47100,25800,35200,45000
201718,Tax year,National,K02000001,United Kingdom,2013/2014,3 YAG,First-degree,UK,Total,304045,295970,210635,17500,23700,30700,16700,22700,29300
201718,Tax year,National,K02000001,United Kingdom,2013/2014,3 YAG,Level 7 (research),UK,Total,2105,2025,985,22600,31800,43100,21600,30300,41200
201718,Tax year,National,K02000001,United Kingdom,2013/2014,3 YAG,Level 7 (taught),UK,Total,103580,100430,70170,22300,29200,40200,21300,27900,38400
201718,Tax year,National,K02000001,United Kingdom,2013/2014,3 YAG,Level 8,UK,Total,9760,9265,6740,27700,35000,44700,26500,33500,42700
201718,Tax year,National,K02000001,United Kingdom,2015/2016,1 YAG,First-degree,UK,Total,288895,282765,178405,14600,20100,25900,14000,19200,24800
201718,Tax year,National,K02000001,United Kingdom,2015/2016,1 YAG,Level 7 (research),UK,Total,2430,2335,1090,20400,28800,39400,19500,27600,37700
201718,Tax year,National,K02000001,United Kingdom,2015/2016,1 YAG,Level 7 (taught),UK,Total,103005,101025,70655,21200,26300,37200,20200,25100,35600
201718,Tax year,National,K02000001,United Kingdom,2015/2016,1 YAG,Level 8,UK,Total,10520,10050,7300,25900,32100,40900,24800,30700,39100
201819,Tax year,National,K02000001,United Kingdom,2007/2008,10 YAG,First-degree,UK,Total,244245,235330,174515,19700,31000,43800,18500,29100,41100
201819,Tax year,National,K02000001,United Kingdom,2007/2008,10 YAG,Level 7 (research),UK,Total,1450,1370,860,24800,38000,53700,23300,35600,50400
201819,Tax year,National,K02000001,United Kingdom,2007/2008,10 YAG,Level 7 (taught),UK,Total,91460,87650,60375,20100,34700,47400,18800,32500,44500
201819,Tax year,National,K02000001,United Kingdom,2007/2008,10 YAG,Level 8,UK,Total,7745,7250,5000,29200,43100,58400,27400,40400,54800
201819,Tax year,National,K02000001,United Kingdom,2012/2013,5 YAG,First-degree,UK,Total,289875,280660,208485,19700,27400,36500,18500,25700,34300
201819,Tax year,National,K02000001,United Kingdom,2012/2013,5 YAG,Level 7 (research),UK,Total,2155,2030,1280,25200,33900,47800,23600,31900,44900
201819,Tax year,National,K02000001,United Kingdom,2012/2013,5 YAG,Level 7 (taught),UK,Total,107140,103310,73915,23000,32800,43800,21600,30800,41100
201819,Tax year,National,K02000001,United Kingdom,2012/2013,5 YAG,Level 8,UK,Total,10135,9550,6920,28100,38000,48500,26400,35600,45600
201819,Tax year,National,K02000001,United Kingdom,2014/2015,3 YAG,First-degree,UK,Total,282820,274780,195710,18200,24500,31800,17100,23000,29800
201819,Tax year,National,K02000001,United Kingdom,2014/2015,3 YAG,Level 7 (research),UK,Total,2320,2220,1080,21900,32100,45300,20600,30100,42500
201819,Tax year,National,K02000001,United Kingdom,2014/2015,3 YAG,Level 7 (taught),UK,Total,102410,99295,69765,23400,30300,41600,21900,28400,39100
201819,Tax year,National,K02000001,United Kingdom,2014/2015,3 YAG,Level 8,UK,Total,10415,9870,7235,28100,36100,46000,26400,33900,43200
201819,Tax year,National,K02000001,United Kingdom,2016/2017,1 YAG,First-degree,UK,Total,299815,293590,183885,15300,20800,26600,14400,19500,25000
201819,Tax year,National,K02000001,United Kingdom,2016/2017,1 YAG,Level 7 (research),UK,Total,2420,2345,1095,19700,27400,38000,18500,25700,35600
201819,Tax year,National,K02000001,United Kingdom,2016/2017,1 YAG,Level 7 (taught),UK,Total,106065,103965,73720,21500,27000,38000,20200,25400,35600
201819,Tax year,National,K02000001,United Kingdom,2016/2017,1 YAG,Level 8,UK,Total,10415,9940,7400,26600,33200,41600,25000,31200,39100
201920,Tax year,National,K02000001,United Kingdom,2008/2009,10 YAG,First-degree,UK,Total,241525,233500,172605,20100,31800,45000,18600,29400,41600
201920,Tax year,National,K02000001,United Kingdom,2008/2009,10 YAG,Level 7 (research),UK,Total,1480,1400,925,24200,36300,50900,22300,33600,47000
201920,Tax year,National,K02000001,United Kingdom,2008/2009,10 YAG,Level 7 (taught),UK,Total,90185,86465,59320,21300,35900,49000,19700,33200,45400
201920,Tax year,National,K02000001,United Kingdom,2008/2009,10 YAG,Level 8,UK,Total,8025,7530,5170,30400,43900,58600,28100,40600,54200
201920,Tax year,National,K02000001,United Kingdom,2013/2014,5 YAG,First-degree,UK,Total,304040,295165,217975,20500,28200,37000,19000,26100,34200
201920,Tax year,National,K02000001,United Kingdom,2013/2014,5 YAG,Level 7 (research),UK,Total,2105,2020,1255,26000,35100,46900,24000,32500,43400
201920,Tax year,National,K02000001,United Kingdom,2013/2014,5 YAG,Level 7 (taught),UK,Total,103585,99895,71540,23800,33700,44700,22000,31100,41300
201920,Tax year,National,K02000001,United Kingdom,2013/2014,5 YAG,Level 8,UK,Total,9760,9250,6765,30000,39200,50900,27800,36200,47000
201920,Tax year,National,K02000001,United Kingdom,2015/2016,3 YAG,First-degree,UK,Total,288890,281355,200220,18700,24900,32200,17300,23000,29800
201920,Tax year,National,K02000001,United Kingdom,2015/2016,3 YAG,Level 7 (research),UK,Total,2430,2315,1120,24900,34400,46800,23000,31800,43300
201920,Tax year,National,K02000001,United Kingdom,2015/2016,3 YAG,Level 7 (taught),UK,Total,103000,100140,70345,23800,31500,43200,22000,29100,39900
201920,Tax year,National,K02000001,United Kingdom,2015/2016,3 YAG,Level 8,UK,Total,10520,9990,7370,28900,37000,47600,26700,34200,44000
201920,Tax year,National,K02000001,United Kingdom,2017/2018,1 YAG,First-degree,UK,Total,302715,296420,183810,15700,21600,27400,14600,20000,25400
201920,Tax year,National,K02000001,United Kingdom,2017/2018,1 YAG,Level 7 (research),UK,Total,2550,2470,1160,20500,27800,38800,19000,25700,35900
201920,Tax year,National,K02000001,United Kingdom,2017/2018,1 YAG,Level 7 (taught),UK,Total,123235,120335,86020,21200,27100,37700,19600,25000,34900
201920,Tax year,National,K02000001,United Kingdom,2017/2018,1 YAG,Level 8,UK,Total,10750,10225,7525,27400,34000,43600,25400,31500,40300
202021,Tax year,National,K02000001,United Kingdom,2009/2010,10 YAG,First-degree,UK,Total,253440,245240,180500,21200,32800,46000,19400,30100,42100
202021,Tax year,National,K02000001,United Kingdom,2009/2010,10 YAG,Level 7 (research),UK,Total,1515,1430,925,24800,39300,53300,22700,36000,48800
202021,Tax year,National,K02000001,United Kingdom,2009/2010,10 YAG,Level 7 (taught),UK,Total,97735,93685,64410,22600,36900,50400,20700,33800,46100
202021,Tax year,National,K02000001,United Kingdom,2009/2010,10 YAG,Level 8,UK,Total,8575,8035,5555,32100,44900,61300,29400,41100,56100
202021,Tax year,National,K02000001,United Kingdom,2014/2015,5 YAG,First-degree,UK,Total,282825,275945,202325,20800,28800,38000,19000,26400,34800
202021,Tax year,National,K02000001,United Kingdom,2014/2015,5 YAG,Level 7 (research),UK,Total,2320,2205,1385,27000,36500,51100,24700,33400,46800
202021,Tax year,National,K02000001,United Kingdom,2014/2015,5 YAG,Level 7 (taught),UK,Total,102410,99160,70770,25200,35000,46000,23100,32100,42100
202021,Tax year,National,K02000001,United Kingdom,2014/2015,5 YAG,Level 8,UK,Total,10415,9860,7245,31000,40500,52900,28400,37100,48500
202021,Tax year,National,K02000001,United Kingdom,2016/2017,3 YAG,First-degree,UK,Total,299820,294335,205790,19000,25200,32800,17400,23100,30100
202021,Tax year,National,K02000001,United Kingdom,2016/2017,3 YAG,Level 7 (research),UK,Total,2420,2325,1095,23700,33200,45600,21700,30400,41800
202021,Tax year,National,K02000001,United Kingdom,2016/2017,3 YAG,Level 7 (taught),UK,Total,106060,103405,72575,24700,32100,43800,22600,29400,40100
202021,Tax year,National,K02000001,United Kingdom,2016/2017,3 YAG,Level 8,UK,Total,10415,9890,7280,29600,37600,48900,27100,34400,44800
202021,Tax year,National,K02000001,United Kingdom,2018/2019,1 YAG,First-degree,UK,Total,304465,300510,177745,15300,21200,27700,14000,19400,25400
202021,Tax year,National,K02000001,United Kingdom,2018/2019,1 YAG,Level 7 (research),UK,Total,2475,2405,1190,20800,28700,39400,19000,26300,36100
202021,Tax year,National,K02000001,United Kingdom,2018/2019,1 YAG,Level 7 (taught),UK,Total,130820,128350,90425,21500,27400,38700,19700,25100,35400
202021,Tax year,National,K02000001,United Kingdom,2018/2019,1 YAG,Level 8,UK,Total,10970,10520,7735,28100,34700,44500,25700,31700,40800
202122,Tax year,National,K02000001,United Kingdom,2010/2011,10 YAG,First-degree,UK,Total,264445,256745,192290,22600,34300,48800,19500,29600,42000
202122,Tax year,National,K02000001,United Kingdom,2010/2011,10 YAG,Level 7 (research),UK,Total,1630,1540,980,27400,40200,55900,23600,34600,48200
202122,Tax year,National,K02000001,United Kingdom,2010/2011,10 YAG,Level 7 (taught),UK,Total,106030,101930,71070,24100,38300,52600,20800,33000,45300
202122,Tax year,National,K02000001,United Kingdom,2010/2011,10 YAG,Level 8,UK,Total,8960,8430,5790,32500,44900,61000,28000,38700,52600
202122,Tax year,National,K02000001,United Kingdom,2015/2016,5 YAG,First-degree,UK,Total,288895,283325,213100,22300,29900,39800,19200,25800,34300
202122,Tax year,National,K02000001,United Kingdom,2015/2016,5 YAG,Level 7 (research),UK,Total,2430,2295,1510,28500,38000,51000,24500,32700,44000
202122,Tax year,National,K02000001,United Kingdom,2015/2016,5 YAG,Level 7 (taught),UK,Total,103005,100070,72730,26600,36100,48500,23000,31200,41900
202122,Tax year,National,K02000001,United Kingdom,2015/2016,5 YAG,Level 8,UK,Total,10520,10020,7475,31800,41200,54000,27400,35600,46600
202122,Tax year,National,K02000001,United Kingdom,2017/2018,3 YAG,First-degree,UK,Total,302730,298010,215895,20200,26300,34300,17400,22700,29600
202122,Tax year,National,K02000001,United Kingdom,2017/2018,3 YAG,Level 7 (research),UK,Total,2550,2460,1245,24500,32800,46700,21100,28300,40300
202122,Tax year,National,K02000001,United Kingdom,2017/2018,3 YAG,Level 7 (taught),UK,Total,123235,120270,87635,25200,32500,44900,21700,28000,38700
202122,Tax year,National,K02000001,United Kingdom,2017/2018,3 YAG,Level 8,UK,Total,10750,10265,7705,31400,39100,51100,27100,33700,44100
202122,Tax year,National,K02000001,United Kingdom,2019/2020,1 YAG,First-degree,UK,Total,291965,289595,180725,16400,22600,29200,14200,19500,25200
202122,Tax year,National,K02000001,United Kingdom,2019/2020,1 YAG,Level 7 (research),UK,Total,2365,2305,1170,23000,29900,40200,19800,25800,34600
202122,Tax year,National,K02000001,United Kingdom,2019/2020,1 YAG,Level 7 (taught),UK,Total,118485,116675,86765,22600,28100,39400,19500,24200,34000
202122,Tax year,National,K02000001,United Kingdom,2019/2020,1 YAG,Level 8,UK,Total,10435,10005,7630,29300,35800,45600,25300,30800,39300
201516,Tax year,National,K02000001,United Kingdom,2004/2005,10 YAG,Level 7,UK,Total,95195,91280,60000,19900,34000,45800,19900,34000,45800
201516,Tax year,National,K02000001,United Kingdom,2009/2010,5 YAG,Level 7,UK,Total,99250,96025,65495,21200,31100,41400,21200,31100,41400
201516,Tax year,National,K02000001,United Kingdom,2011/2012,3 YAG,Level 7,UK,Total,108645,105735,70840,21200,28900,39200,21200,28900,39200
201516,Tax year,National,K02000001,United Kingdom,2013/2014,1 YAG,Level 7,UK,Total,105690,103760,71870,20300,25300,35900,20300,25300,35900
201617,Tax year,National,K02000001,United Kingdom,2005/2006,10 YAG,Level 7,UK,Total,96220,92205,61540,19700,33900,46000,19300,33200,45000
201617,Tax year,National,K02000001,United Kingdom,2010/2011,5 YAG,Level 7,UK,Total,107660,104275,71300,21500,31400,42000,21100,30700,41000
201617,Tax year,National,K02000001,United Kingdom,2012/2013,3 YAG,Level 7,UK,Total,109300,106380,72995,21500,28800,39400,21100,28200,38500
201617,Tax year,National,K02000001,United Kingdom,2014/2015,1 YAG,Level 7,UK,Total,104730,102875,71040,20800,25900,36500,20300,25300,35700
201718,Tax year,National,K02000001,United Kingdom,2006/2007,10 YAG,Level 7,UK,Total,96900,92925,62505,19700,33900,46200,18800,32400,44100
201718,Tax year,National,K02000001,United Kingdom,2011/2012,5 YAG,Level 7,UK,Total,108640,104915,72430,22300,32100,42700,21300,30700,40800
201718,Tax year,National,K02000001,United Kingdom,2013/2014,3 YAG,Level 7,UK,Total,105690,102455,71155,22300,29400,40200,21300,28100,38400
201718,Tax year,National,K02000001,United Kingdom,2015/2016,1 YAG,Level 7,UK,Total,105430,103360,71745,21200,26300,37200,20200,25100,35600
201819,Tax year,National,K02000001,United Kingdom,2007/2008,10 YAG,Level 7,UK,Total,92910,89020,61235,20300,34700,47400,19000,32500,44500
201819,Tax year,National,K02000001,United Kingdom,2012/2013,5 YAG,Level 7,UK,Total,109290,105340,75195,23000,32800,43800,21600,30800,41100
201819,Tax year,National,K02000001,United Kingdom,2014/2015,3 YAG,Level 7,UK,Total,104730,101520,70845,23400,30300,41600,21900,28400,39100
201819,Tax year,National,K02000001,United Kingdom,2016/2017,1 YAG,Level 7,UK,Total,108485,106310,74815,21500,27000,38000,20200,25400,35600
201920,Tax year,National,K02000001,United Kingdom,2008/2009,10 YAG,Level 7,UK,Total,91660,87865,60245,21600,35900,49300,20000,33200,45600
201920,Tax year,National,K02000001,United Kingdom,2013/2014,5 YAG,Level 7,UK,Total,105690,101915,72795,23800,33700,44700,22000,31100,41300
201920,Tax year,National,K02000001,United Kingdom,2015/2016,3 YAG,Level 7,UK,Total,105430,102450,71465,23800,31500,43200,22000,29100,39900
201920,Tax year,National,K02000001,United Kingdom,2017/2018,1 YAG,Level 7,UK,Total,125785,122805,87180,21200,27100,37700,19600,25000,34900
202021,Tax year,National,K02000001,United Kingdom,2009/2010,10 YAG,Level 7,UK,Total,99250,95115,65335,22600,36900,50500,20700,33800,46300
202021,Tax year,National,K02000001,United Kingdom,2014/2015,5 YAG,Level 7,UK,Total,104730,101370,72155,25200,35000,46000,23100,32100,42100
202021,Tax year,National,K02000001,United Kingdom,2016/2017,3 YAG,Level 7,UK,Total,108480,105730,73675,24500,32400,43900,22400,29600,40200
202021,Tax year,National,K02000001,United Kingdom,2018/2019,1 YAG,Level 7,UK,Total,133295,130755,91610,21500,27400,38700,19700,25100,35400
202122,Tax year,National,K02000001,United Kingdom,2010/2011,10 YAG,Level 7,UK,Total,107660,103470,72055,24500,38300,52600,21100,33000,45300
202122,Tax year,National,K02000001,United Kingdom,2015/2016,5 YAG,Level 7,UK,Total,105430,102370,74240,26600,36100,48500,23000,31200,41900
202122,Tax year,National,K02000001,United Kingdom,2017/2018,3 YAG,Level 7,UK,Total,125785,122735,88880,25200,32500,44900,21700,28000,38700
202122,Tax year,National,K02000001,United Kingdom,2019/2020,1 YAG,Level 7,UK,Total,120850,118980,87940,22600,28100,39400,19500,24200,34000
201516,Tax year,National,K02000001,United Kingdom,2004/2005,10 YAG,First-degree,UK,"Agriculture, food and related studies",1590,1540,1115,14300,24200,35500,14300,24200,35500
201516,Tax year,National,K02000001,United Kingdom,2004/2005,10 YAG,First-degree,UK,Allied health,7125,6940,4795,16200,26700,34800,16200,26700,34800
201516,Tax year,National,K02000001,United Kingdom,2004/2005,10 YAG,First-degree,UK,"Architecture, building and planning",3925,3780,2860,25600,36200,47900,25600,36200,47900
201516,Tax year,National,K02000001,United Kingdom,2004/2005,10 YAG,First-degree,UK,Biosciences,7370,7105,5150,20900,30400,39500,20900,30400,39500
201516,Tax year,National,K02000001,United Kingdom,2004/2005,10 YAG,First-degree,UK,Business and management,26100,25170,18750,20500,31800,47200,20500,31800,47200
201516,Tax year,National,K02000001,United Kingdom,2004/2005,10 YAG,First-degree,UK,Celtic studies,20,15,5,15400,27400,32200,15400,27400,32200
201516,Tax year,National,K02000001,United Kingdom,2004/2005,10 YAG,First-degree,UK,Chemistry,2120,2050,1530,24500,33700,44700,24500,33700,44700
201516,Tax year,National,K02000001,United Kingdom,2004/2005,10 YAG,First-degree,UK,Combined and general studies,7110,6880,4225,12400,24900,38100,12400,24900,38100
201516,Tax year,National,K02000001,United Kingdom,2004/2005,10 YAG,First-degree,UK,Computing,14480,14000,10635,21600,34000,47200,21600,34000,47200
201516,Tax year,National,K02000001,United Kingdom,2004/2005,10 YAG,First-degree,UK,Creative arts and design,17395,16800,11850,12800,22700,32900,12800,22700,32900
201516,Tax year,National,K02000001,United Kingdom,2004/2005,10 YAG,First-degree,UK,Economics,4085,3880,2880,29700,47600,76100,29700,47600,76100
201516,Tax year,National,K02000001,United Kingdom,2004/2005,10 YAG,First-degree,UK,Education and teaching,8370,8195,6325,16800,27400,35100,16800,27400,35100
201516,Tax year,National,K02000001,United Kingdom,2004/2005,10 YAG,First-degree,UK,Engineering,9725,9250,7070,29300,40600,53400,29300,40600,53400
201516,Tax year,National,K02000001,United Kingdom,2004/2005,10 YAG,First-degree,UK,English studies,9740,9430,6920,17200,27400,36600,17200,27400,36600
201516,Tax year,National,K02000001,United Kingdom,2004/2005,10 YAG,First-degree,UK,"General, applied and forensic sciences",1225,1185,855,19400,28900,38400,19400,28900,38400
201516,Tax year,National,K02000001,United Kingdom,2004/2005,10 YAG,First-degree,UK,"Geography, earth and environmental studies",6860,6560,5045,22000,31500,42100,22000,31500,42100
201516,Tax year,National,K02000001,United Kingdom,2004/2005,10 YAG,First-degree,UK,Health and social care,3210,3150,2200,16100,26400,33700,16100,26400,33700
201516,Tax year,National,K02000001,United Kingdom,2004/2005,10 YAG,First-degree,UK,History and archaeology,8970,8645,6380,19800,30000,41700,19800,30000,41700
201516,Tax year,National,K02000001,United Kingdom,2004/2005,10 YAG,First-degree,UK,Languages and area studies,5635,5195,3485,19400,30700,44700,19400,30700,44700
201516,Tax year,National,K02000001,United Kingdom,2004/2005,10 YAG,First-degree,UK,Law,9995,9705,7135,21600,33300,50100,21600,33300,50100
201516,Tax year,National,K02000001,United Kingdom,2004/2005,10 YAG,First-degree,UK,Materials and technology,1765,1665,1225,18700,32200,45800,18700,32200,45800
201516,Tax year,National,K02000001,United Kingdom,2004/2005,10 YAG,First-degree,UK,Mathematical sciences,3835,3695,2770,28200,39900,60800,28200,39900,60800
201516,Tax year,National,K02000001,United Kingdom,2004/2005,10 YAG,First-degree,UK,"Media, journalism and communications",6965,6730,5110,17900,27100,36600,17900,27100,36600
201516,Tax year,National,K02000001,United Kingdom,2004/2005,10 YAG,First-degree,UK,Medical sciences,2115,2055,1360,24200,34800,46100,24200,34800,46100
201516,Tax year,National,K02000001,United Kingdom,2004/2005,10 YAG,First-degree,UK,Medicine and dentistry,5375,5190,2915,36600,54900,68100,36600,54900,68100
201516,Tax year,National,K02000001,United Kingdom,2004/2005,10 YAG,First-degree,UK,Nursing and midwifery,8345,8140,5280,20900,30000,37000,20900,30000,37000
201516,Tax year,National,K02000001,United Kingdom,2004/2005,10 YAG,First-degree,UK,Performing arts,7185,6970,4980,14300,23800,33700,14300,23800,33700
201516,Tax year,National,K02000001,United Kingdom,2004/2005,10 YAG,First-degree,UK,"Pharmacology, toxicology and pharmacy",1695,1660,1165,19400,33300,45400,19400,33300,45400
201516,Tax year,National,K02000001,United Kingdom,2004/2005,10 YAG,First-degree,UK,Philosophy and religious studies,2680,2570,1705,18700,29600,41700,18700,29600,41700
201516,Tax year,National,K02000001,United Kingdom,2004/2005,10 YAG,First-degree,UK,Physics and astronomy,1980,1860,1420,28500,37700,52000,28500,37700,52000
201516,Tax year,National,K02000001,United Kingdom,2004/2005,10 YAG,First-degree,UK,Politics,3560,3380,2395,23800,35100,51200,23800,35100,51200
201516,Tax year,National,K02000001,United Kingdom,2004/2005,10 YAG,First-degree,UK,Psychology,9005,8750,6145,16800,26400,35100,16800,26400,35100
201516,Tax year,National,K02000001,United Kingdom,2004/2005,10 YAG,First-degree,UK,"Sociology, social policy and anthropology",8215,7995,5740,16500,26000,34800,16500,26000,34800
201516,Tax year,National,K02000001,United Kingdom,2004/2005,10 YAG,First-degree,UK,Sport and exercise sciences,4545,4385,3455,21600,30400,38100,21600,30400,38100
201516,Tax year,National,K02000001,United Kingdom,2004/2005,10 YAG,First-degree,UK,Veterinary sciences,600,575,395,17900,31500,43900,17900,31500,43900
201516,Tax year,National,K02000001,United Kingdom,2004/2005,10 YAG,Level 7,UK,"Agriculture, food and related studies",355,340,205,19800,31500,42100,19800,31500,42100
201516,Tax year,National,K02000001,United Kingdom,2004/2005,10 YAG,Level 7,UK,Allied health,3310,3210,1985,19600,33300,43900,19600,33300,43900
201516,Tax year,National,K02000001,United Kingdom,2004/2005,10 YAG,Level 7,UK,"Architecture, building and planning",2665,2540,1770,22700,35500,49000,22700,35500,49000
201516,Tax year,National,K02000001,United Kingdom,2004/2005,10 YAG,Level 7,UK,Biosciences,975,930,615,21600,32600,41400,21600,32600,41400
201516,Tax year,National,K02000001,United Kingdom,2004/2005,10 YAG,Level 7,UK,Business and management,16725,15870,10175,26000,44300,69500,26000,44300,69500
201516,Tax year,National,K02000001,United Kingdom,2004/2005,10 YAG,Level 7,UK,Celtic studies,10,10,5,9500,16800,24400,9500,16800,24400
201516,Tax year,National,K02000001,United Kingdom,2004/2005,10 YAG,Level 7,UK,Chemistry,250,240,170,24900,36500,47900,24900,36500,47900
201516,Tax year,National,K02000001,United Kingdom,2004/2005,10 YAG,Level 7,UK,Combined and general studies,410,400,250,17200,27800,39900,17200,27800,39900
201516,Tax year,National,K02000001,United Kingdom,2004/2005,10 YAG,Level 7,UK,Computing,2985,2840,1840,22000,38400,57500,22000,38400,57500
201516,Tax year,National,K02000001,United Kingdom,2004/2005,10 YAG,Level 7,UK,Creative arts and design,1960,1885,1110,10100,20900,34400,10100,20900,34400
201516,Tax year,National,K02000001,United Kingdom,2004/2005,10 YAG,Level 7,UK,Economics,700,650,400,33700,55600,97400,33700,55600,97400
201516,Tax year,National,K02000001,United Kingdom,2004/2005,10 YAG,Level 7,UK,Education and teaching,7935,7700,4890,17600,33300,44300,17600,33300,44300
201516,Tax year,National,K02000001,United Kingdom,2004/2005,10 YAG,Level 7,UK,Engineering,2440,2320,1505,27100,43200,59700,27100,43200,59700
201516,Tax year,National,K02000001,United Kingdom,2004/2005,10 YAG,Level 7,UK,English studies,1415,1370,805,14600,26400,38400,14600,26400,38400
201516,Tax year,National,K02000001,United Kingdom,2004/2005,10 YAG,Level 7,UK,"General, applied and forensic sciences",420,405,255,15700,26400,37000,15700,26400,37000
201516,Tax year,National,K02000001,United Kingdom,2004/2005,10 YAG,Level 7,UK,"Geography, earth and environmental studies",1310,1205,785,20900,32900,45400,20900,32900,45400
201516,Tax year,National,K02000001,United Kingdom,2004/2005,10 YAG,Level 7,UK,Health and social care,1910,1870,1135,16100,29600,38400,16100,29600,38400
201516,Tax year,National,K02000001,United Kingdom,2004/2005,10 YAG,Level 7,UK,History and archaeology,1950,1880,1130,16100,27100,39500,16100,27100,39500
201516,Tax year,National,K02000001,United Kingdom,2004/2005,10 YAG,Level 7,UK,Languages and area studies,1025,940,500,15700,28900,40300,15700,28900,40300
201516,Tax year,National,K02000001,United Kingdom,2004/2005,10 YAG,Level 7,UK,Law,6070,5815,3790,24500,41000,71700,24500,41000,71700
201516,Tax year,National,K02000001,United Kingdom,2004/2005,10 YAG,Level 7,UK,MBA,20,20,15,36200,53800,65500,36200,53800,65500
201516,Tax year,National,K02000001,United Kingdom,2004/2005,10 YAG,Level 7,UK,Materials and technology,730,685,440,21600,41700,62200,21600,41700,62200
201516,Tax year,National,K02000001,United Kingdom,2004/2005,10 YAG,Level 7,UK,Mathematical sciences,605,560,380,28200,42500,66200,28200,42500,66200
201516,Tax year,National,K02000001,United Kingdom,2004/2005,10 YAG,Level 7,UK,"Media, journalism and communications",2050,1975,1275,18300,29300,38800,18300,29300,38800
201516,Tax year,National,K02000001,United Kingdom,2004/2005,10 YAG,Level 7,UK,Medical sciences,695,680,445,24900,37000,45400,24900,37000,45400
201516,Tax year,National,K02000001,United Kingdom,2004/2005,10 YAG,Level 7,UK,Medicine and dentistry,1450,1370,815,29600,45400,77200,29600,45400,77200
201516,Tax year,National,K02000001,United Kingdom,2004/2005,10 YAG,Level 7,UK,Nursing and midwifery,1330,1300,835,22000,34800,44700,22000,34800,44700
201516,Tax year,National,K02000001,United Kingdom,2004/2005,10 YAG,Level 7,UK,PGCE,24145,23335,17145,18900,31100,38100,18900,31100,38100
201516,Tax year,National,K02000001,United Kingdom,2004/2005,10 YAG,Level 7,UK,Performing arts,970,930,590,12400,24200,35100,12400,24200,35100
201516,Tax year,National,K02000001,United Kingdom,2004/2005,10 YAG,Level 7,UK,"Pharmacology, toxicology and pharmacy",1010,960,590,24500,39900,49800,24500,39900,49800
201516,Tax year,National,K02000001,United Kingdom,2004/2005,10 YAG,Level 7,UK,Philosophy and religious studies,650,630,310,12800,25600,38400,12800,25600,38400
201516,Tax year,National,K02000001,United Kingdom,2004/2005,10 YAG,Level 7,UK,Physics and astronomy,245,230,150,28500,38800,51200,28500,38800,51200
201516,Tax year,National,K02000001,United Kingdom,2004/2005,10 YAG,Level 7,UK,Politics,1420,1335,805,27800,39500,64400,27800,39500,64400
201516,Tax year,National,K02000001,United Kingdom,2004/2005,10 YAG,Level 7,UK,Psychology,2215,2140,1260,17900,30900,41400,17900,30900,41400
201516,Tax year,National,K02000001,United Kingdom,2004/2005,10 YAG,Level 7,UK,"Sociology, social policy and anthropology",2465,2350,1400,19000,32200,44700,19000,32200,44700
201516,Tax year,National,K02000001,United Kingdom,2004/2005,10 YAG,Level 7,UK,Sport and exercise sciences,285,275,190,23800,34000,44300,23800,34000,44300
201516,Tax year,National,K02000001,United Kingdom,2004/2005,10 YAG,Level 7,UK,Veterinary sciences,90,85,45,15400,37700,49400,15400,37700,49400
201516,Tax year,National,K02000001,United Kingdom,2004/2005,10 YAG,Level 8,UK,"Agriculture, food and related studies",65,60,40,24900,37300,52000,24900,37300,52000
201516,Tax year,National,K02000001,United Kingdom,2004/2005,10 YAG,Level 8,UK,Allied health,140,135,85,26000,42800,59700,26000,42800,59700
201516,Tax year,National,K02000001,United Kingdom,2004/2005,10 YAG,Level 8,UK,"Architecture, building and planning",70,65,40,24200,37300,47900,24200,37300,47900
201516,Tax year,National,K02000001,United Kingdom,2004/2005,10 YAG,Level 8,UK,Biosciences,875,835,520,28500,38800,50500,28500,38800,50500
201516,Tax year,National,K02000001,United Kingdom,2004/2005,10 YAG,Level 8,UK,Business and management,195,185,120,27800,47900,62600,27800,47900,62600
201516,Tax year,National,K02000001,United Kingdom,2004/2005,10 YAG,Level 8,UK,Celtic studies,0,0,0,1500,1500,1500,1500,1500,1500
201516,Tax year,National,K02000001,United Kingdom,2004/2005,10 YAG,Level 8,UK,Chemistry,555,535,340,33300,42500,58900,33300,42500,58900
201516,Tax year,National,K02000001,United Kingdom,2004/2005,10 YAG,Level 8,UK,Combined and general studies,5,5,0,50100,50100,50100,50100,50100,50100
201516,Tax year,National,K02000001,United Kingdom,2004/2005,10 YAG,Level 8,UK,Computing,190,180,120,21200,41200,55300,21200,41200,55300
201516,Tax year,National,K02000001,United Kingdom,2004/2005,10 YAG,Level 8,UK,Creative arts and design,80,75,45,11100,34800,46500,11100,34800,46500
201516,Tax year,National,K02000001,United Kingdom,2004/2005,10 YAG,Level 8,UK,Economics,55,50,35,34000,52300,68800,34000,52300,68800
201516,Tax year,National,K02000001,United Kingdom,2004/2005,10 YAG,Level 8,UK,Education and teaching,355,340,220,15300,37700,51300,15300,37700,51300
201516,Tax year,National,K02000001,United Kingdom,2004/2005,10 YAG,Level 8,UK,Engineering,635,590,410,34400,46100,61300,34400,46100,61300
201516,Tax year,National,K02000001,United Kingdom,2004/2005,10 YAG,Level 8,UK,English studies,200,195,115,23800,38100,45800,23800,38100,45800
201516,Tax year,National,K02000001,United Kingdom,2004/2005,10 YAG,Level 8,UK,"General, applied and forensic sciences",60,55,35,16100,35900,42800,16100,35900,42800
201516,Tax year,National,K02000001,United Kingdom,2004/2005,10 YAG,Level 8,UK,"Geography, earth and environmental studies",340,310,200,28200,39500,46800,28200,39500,46800
201516,Tax year,National,K02000001,United Kingdom,2004/2005,10 YAG,Level 8,UK,Health and social care,30,30,20,24900,41000,44700,24900,41000,44700
201516,Tax year,National,K02000001,United Kingdom,2004/2005,10 YAG,Level 8,UK,History and archaeology,335,325,200,16100,33300,45800,16100,33300,45800
201516,Tax year,National,K02000001,United Kingdom,2004/2005,10 YAG,Level 8,UK,Languages and area studies,155,140,80,17200,38100,45400,17200,38100,45400
201516,Tax year,National,K02000001,United Kingdom,2004/2005,10 YAG,Level 8,UK,Law,50,45,35,28200,43700,56000,28200,43700,56000
201516,Tax year,National,K02000001,United Kingdom,2004/2005,10 YAG,Level 8,UK,Materials and technology,110,105,80,32200,39200,49400,32200,39200,49400
201516,Tax year,National,K02000001,United Kingdom,2004/2005,10 YAG,Level 8,UK,Mathematical sciences,200,190,135,34000,45000,62200,34000,45000,62200
201516,Tax year,National,K02000001,United Kingdom,2004/2005,10 YAG,Level 8,UK,"Media, journalism and communications",35,30,15,13900,28500,52000,13900,28500,52000
201516,Tax year,National,K02000001,United Kingdom,2004/2005,10 YAG,Level 8,UK,Medical sciences,130,120,65,31500,43200,50900,31500,43200,50900
201516,Tax year,National,K02000001,United Kingdom,2004/2005,10 YAG,Level 8,UK,Medicine and dentistry,1035,970,620,37300,60400,104700,37300,60400,104700
201516,Tax year,National,K02000001,United Kingdom,2004/2005,10 YAG,Level 8,UK,Nursing and midwifery,65,60,40,31100,43200,53400,31100,43200,53400
201516,Tax year,National,K02000001,United Kingdom,2004/2005,10 YAG,Level 8,UK,Performing arts,80,70,45,15700,34400,43200,15700,34400,43200
201516,Tax year,National,K02000001,United Kingdom,2004/2005,10 YAG,Level 8,UK,"Pharmacology, toxicology and pharmacy",165,150,90,30000,39500,59300,30000,39500,59300
201516,Tax year,National,K02000001,United Kingdom,2004/2005,10 YAG,Level 8,UK,Philosophy and religious studies,135,130,65,22700,39500,49800,22700,39500,49800
201516,Tax year,National,K02000001,United Kingdom,2004/2005,10 YAG,Level 8,UK,Physics and astronomy,355,330,205,34200,43200,57800,34200,43200,57800
201516,Tax year,National,K02000001,United Kingdom,2004/2005,10 YAG,Level 8,UK,Politics,90,80,55,29100,42800,52100,29100,42800,52100
201516,Tax year,National,K02000001,United Kingdom,2004/2005,10 YAG,Level 8,UK,Psychology,570,555,340,25800,40600,48700,25800,40600,48700
201516,Tax year,National,K02000001,United Kingdom,2004/2005,10 YAG,Level 8,UK,"Sociology, social policy and anthropology",275,265,180,23400,40600,47200,23400,40600,47200
201516,Tax year,National,K02000001,United Kingdom,2004/2005,10 YAG,Level 8,UK,Sport and exercise sciences,50,50,30,35900,43900,55600,35900,43900,55600
201516,Tax year,National,K02000001,United Kingdom,2004/2005,10 YAG,Level 8,UK,Veterinary sciences,35,35,20,30700,37700,50100,30700,37700,50100
201516,Tax year,National,K02000001,United Kingdom,2009/2010,5 YAG,First-degree,UK,"Agriculture, food and related studies",1740,1700,1230,14700,20500,27800,14700,20500,27800
201516,Tax year,National,K02000001,United Kingdom,2009/2010,5 YAG,First-degree,UK,Allied health,8455,8265,5685,16500,24800,30400,16500,24800,30400
201516,Tax year,National,K02000001,United Kingdom,2009/2010,5 YAG,First-degree,UK,"Architecture, building and planning",7070,6880,5185,23100,31000,41000,23100,31000,41000
201516,Tax year,National,K02000001,United Kingdom,2009/2010,5 YAG,First-degree,UK,Biosciences,7440,7215,4580,18300,24900,31100,18300,24900,31100
201516,Tax year,National,K02000001,United Kingdom,2009/2010,5 YAG,First-degree,UK,Business and management,29030,28210,21750,19400,26700,36200,19400,26700,36200
201516,Tax year,National,K02000001,United Kingdom,2009/2010,5 YAG,First-degree,UK,Celtic studies,30,30,20,16100,24500,33400,16100,24500,33400
201516,Tax year,National,K02000001,United Kingdom,2009/2010,5 YAG,First-degree,UK,Chemistry,2285,2200,1495,22700,28500,35500,22700,28500,35500
201516,Tax year,National,K02000001,United Kingdom,2009/2010,5 YAG,First-degree,UK,Combined and general studies,5550,5425,3400,13500,23400,32900,13500,23400,32900
201516,Tax year,National,K02000001,United Kingdom,2009/2010,5 YAG,First-degree,UK,Computing,9715,9500,7425,19400,27400,37000,19400,27400,37000
201516,Tax year,National,K02000001,United Kingdom,2009/2010,5 YAG,First-degree,UK,Creative arts and design,20085,19590,14425,13500,20100,26800,13500,20100,26800
201516,Tax year,National,K02000001,United Kingdom,2009/2010,5 YAG,First-degree,UK,Economics,4085,3950,3065,27100,37700,53800,27100,37700,53800
201516,Tax year,National,K02000001,United Kingdom,2009/2010,5 YAG,First-degree,UK,Education and teaching,13125,12880,10385,15700,23800,28900,15700,23800,28900
201516,Tax year,National,K02000001,United Kingdom,2009/2010,5 YAG,First-degree,UK,Engineering,10095,9760,7350,26000,34000,42500,26000,34000,42500
201516,Tax year,National,K02000001,United Kingdom,2009/2010,5 YAG,First-degree,UK,English studies,10945,10625,7745,16800,23400,29300,16800,23400,29300
201516,Tax year,National,K02000001,United Kingdom,2009/2010,5 YAG,First-degree,UK,"General, applied and forensic sciences",1570,1530,1140,17200,22700,28900,17200,22700,28900
201516,Tax year,National,K02000001,United Kingdom,2009/2010,5 YAG,First-degree,UK,"Geography, earth and environmental studies",6455,6205,4605,20500,26700,34000,20500,26700,34000
201516,Tax year,National,K02000001,United Kingdom,2009/2010,5 YAG,First-degree,UK,Health and social care,7110,7045,4915,15000,23100,30400,15000,23100,30400
201516,Tax year,National,K02000001,United Kingdom,2009/2010,5 YAG,First-degree,UK,History and archaeology,10055,9740,7110,19000,25600,33300,19000,25600,33300
201516,Tax year,National,K02000001,United Kingdom,2009/2010,5 YAG,First-degree,UK,Languages and area studies,5375,4940,3325,20900,27400,36600,20900,27400,36600
201516,Tax year,National,K02000001,United Kingdom,2009/2010,5 YAG,First-degree,UK,Law,11165,10970,8315,18300,24900,34400,18300,24900,34400
201516,Tax year,National,K02000001,United Kingdom,2009/2010,5 YAG,First-degree,UK,Materials and technology,1880,1820,1350,17900,24900,32200,17900,24900,32200
201516,Tax year,National,K02000001,United Kingdom,2009/2010,5 YAG,First-degree,UK,Mathematical sciences,4490,4355,3285,25300,32900,45800,25300,32900,45800
201516,Tax year,National,K02000001,United Kingdom,2009/2010,5 YAG,First-degree,UK,"Media, journalism and communications",7835,7625,5955,16800,22700,28900,16800,22700,28900
201516,Tax year,National,K02000001,United Kingdom,2009/2010,5 YAG,First-degree,UK,Medical sciences,2700,2615,1615,24500,30700,39900,24500,30700,39900
201516,Tax year,National,K02000001,United Kingdom,2009/2010,5 YAG,First-degree,UK,Medicine and dentistry,6860,6660,4810,39500,47200,52000,39500,47200,52000
201516,Tax year,National,K02000001,United Kingdom,2009/2010,5 YAG,First-degree,UK,Nursing and midwifery,9985,9850,6090,21600,28200,33700,21600,28200,33700
201516,Tax year,National,K02000001,United Kingdom,2009/2010,5 YAG,First-degree,UK,Performing arts,10060,9830,7155,12900,19800,26100,12900,19800,26100
201516,Tax year,National,K02000001,United Kingdom,2009/2010,5 YAG,First-degree,UK,"Pharmacology, toxicology and pharmacy",2375,2340,1475,20100,33300,42500,20100,33300,42500
201516,Tax year,National,K02000001,United Kingdom,2009/2010,5 YAG,First-degree,UK,Philosophy and religious studies,3115,2995,2015,18300,25600,33700,18300,25600,33700
201516,Tax year,National,K02000001,United Kingdom,2009/2010,5 YAG,First-degree,UK,Physics and astronomy,2110,2005,1300,25200,31500,41000,25200,31500,41000
201516,Tax year,National,K02000001,United Kingdom,2009/2010,5 YAG,First-degree,UK,Politics,4125,3965,2790,20900,28100,37300,20900,28100,37300
201516,Tax year,National,K02000001,United Kingdom,2009/2010,5 YAG,First-degree,UK,Psychology,10380,10135,6610,16500,22300,28200,16500,22300,28200
201516,Tax year,National,K02000001,United Kingdom,2009/2010,5 YAG,First-degree,UK,"Sociology, social policy and anthropology",8725,8540,6180,16500,22300,28500,16500,22300,28500
201516,Tax year,National,K02000001,United Kingdom,2009/2010,5 YAG,First-degree,UK,Sport and exercise sciences,6775,6605,5095,18300,23800,29300,18300,23800,29300
201516,Tax year,National,K02000001,United Kingdom,2009/2010,5 YAG,First-degree,UK,Veterinary sciences,645,625,445,20900,31800,38800,20900,31800,38800
201516,Tax year,National,K02000001,United Kingdom,2009/2010,5 YAG,Level 7,UK,"Agriculture, food and related studies",395,380,265,18800,25600,33700,18800,25600,33700
201516,Tax year,National,K02000001,United Kingdom,2009/2010,5 YAG,Level 7,UK,Allied health,4645,4555,2965,20100,30700,40600,20100,30700,40600
201516,Tax year,National,K02000001,United Kingdom,2009/2010,5 YAG,Level 7,UK,"Architecture, building and planning",4305,4170,3120,26000,34800,45400,26000,34800,45400
201516,Tax year,National,K02000001,United Kingdom,2009/2010,5 YAG,Level 7,UK,Biosciences,1185,1140,715,20500,28900,35900,20500,28900,35900
201516,Tax year,National,K02000001,United Kingdom,2009/2010,5 YAG,Level 7,UK,Business and management,12985,12565,8630,26400,38400,54200,26400,38400,54200
201516,Tax year,National,K02000001,United Kingdom,2009/2010,5 YAG,Level 7,UK,Celtic studies,15,15,10,7700,18700,43900,7700,18700,43900
201516,Tax year,National,K02000001,United Kingdom,2009/2010,5 YAG,Level 7,UK,Chemistry,200,195,135,24900,29600,38100,24900,29600,38100
201516,Tax year,National,K02000001,United Kingdom,2009/2010,5 YAG,Level 7,UK,Combined and general studies,655,645,395,16100,25600,36600,16100,25600,36600
201516,Tax year,National,K02000001,United Kingdom,2009/2010,5 YAG,Level 7,UK,Computing,2165,2090,1285,23400,35500,49800,23400,35500,49800
201516,Tax year,National,K02000001,United Kingdom,2009/2010,5 YAG,Level 7,UK,Creative arts and design,2490,2415,1490,10200,20100,30700,10200,20100,30700
201516,Tax year,National,K02000001,United Kingdom,2009/2010,5 YAG,Level 7,UK,Economics,675,645,415,29800,45000,58200,29800,45000,58200
201516,Tax year,National,K02000001,United Kingdom,2009/2010,5 YAG,Level 7,UK,Education and teaching,9775,9545,6630,22000,34000,42500,22000,34000,42500
201516,Tax year,National,K02000001,United Kingdom,2009/2010,5 YAG,Level 7,UK,Engineering,2640,2525,1625,27100,38100,51200,27100,38100,51200
201516,Tax year,National,K02000001,United Kingdom,2009/2010,5 YAG,Level 7,UK,English studies,2055,1995,1125,12400,22700,31800,12400,22700,31800
201516,Tax year,National,K02000001,United Kingdom,2009/2010,5 YAG,Level 7,UK,"General, applied and forensic sciences",405,395,260,19800,26600,34800,19800,26600,34800
201516,Tax year,National,K02000001,United Kingdom,2009/2010,5 YAG,Level 7,UK,"Geography, earth and environmental studies",1500,1420,955,23800,30400,39900,23800,30400,39900
201516,Tax year,National,K02000001,United Kingdom,2009/2010,5 YAG,Level 7,UK,Health and social care,2505,2465,1620,16800,28200,35100,16800,28200,35100
201516,Tax year,National,K02000001,United Kingdom,2009/2010,5 YAG,Level 7,UK,History and archaeology,2315,2250,1320,16800,24900,33700,16800,24900,33700
201516,Tax year,National,K02000001,United Kingdom,2009/2010,5 YAG,Level 7,UK,Languages and area studies,1035,955,500,16100,26400,35900,16100,26400,35900
201516,Tax year,National,K02000001,United Kingdom,2009/2010,5 YAG,Level 7,UK,Law,4880,4760,3345,22000,32600,48300,22000,32600,48300
201516,Tax year,National,K02000001,United Kingdom,2009/2010,5 YAG,Level 7,UK,MBA,3055,2875,1925,33700,56700,87800,33700,56700,87800
201516,Tax year,National,K02000001,United Kingdom,2009/2010,5 YAG,Level 7,UK,Materials and technology,655,620,405,18700,31800,45400,18700,31800,45400
201516,Tax year,National,K02000001,United Kingdom,2009/2010,5 YAG,Level 7,UK,Mathematical sciences,560,540,345,27800,36900,53100,27800,36900,53100
201516,Tax year,National,K02000001,United Kingdom,2009/2010,5 YAG,Level 7,UK,"Media, journalism and communications",2295,2215,1540,18700,27100,35100,18700,27100,35100
201516,Tax year,National,K02000001,United Kingdom,2009/2010,5 YAG,Level 7,UK,Medical sciences,735,720,490,25900,33700,42500,25900,33700,42500
201516,Tax year,National,K02000001,United Kingdom,2009/2010,5 YAG,Level 7,UK,Medicine and dentistry,2350,2250,1325,30000,42800,68400,30000,42800,68400
201516,Tax year,National,K02000001,United Kingdom,2009/2010,5 YAG,Level 7,UK,Nursing and midwifery,2715,2675,1750,24500,34000,42800,24500,34000,42800
201516,Tax year,National,K02000001,United Kingdom,2009/2010,5 YAG,Level 7,UK,PGCE,18525,17895,14225,20900,28900,33700,20900,28900,33700
201516,Tax year,National,K02000001,United Kingdom,2009/2010,5 YAG,Level 7,UK,Performing arts,1435,1380,850,12800,21000,29300,12800,21000,29300
201516,Tax year,National,K02000001,United Kingdom,2009/2010,5 YAG,Level 7,UK,"Pharmacology, toxicology and pharmacy",830,805,535,23800,35900,44500,23800,35900,44500
201516,Tax year,National,K02000001,United Kingdom,2009/2010,5 YAG,Level 7,UK,Philosophy and religious studies,895,865,425,12400,25000,37300,12400,25000,37300
201516,Tax year,National,K02000001,United Kingdom,2009/2010,5 YAG,Level 7,UK,Physics and astronomy,295,285,175,28900,34000,45400,28900,34000,45400
201516,Tax year,National,K02000001,United Kingdom,2009/2010,5 YAG,Level 7,UK,Politics,1790,1690,970,26000,37300,56000,26000,37300,56000
201516,Tax year,National,K02000001,United Kingdom,2009/2010,5 YAG,Level 7,UK,Psychology,3120,3050,1850,19800,28200,36200,19800,28200,36200
201516,Tax year,National,K02000001,United Kingdom,2009/2010,5 YAG,Level 7,UK,"Sociology, social policy and anthropology",2650,2570,1560,20100,30400,41000,20100,30400,41000
201516,Tax year,National,K02000001,United Kingdom,2009/2010,5 YAG,Level 7,UK,Sport and exercise sciences,455,420,275,19800,27400,35700,19800,27400,35700
201516,Tax year,National,K02000001,United Kingdom,2009/2010,5 YAG,Level 7,UK,Veterinary sciences,60,55,40,18700,27100,37700,18700,27100,37700
201516,Tax year,National,K02000001,United Kingdom,2009/2010,5 YAG,Level 8,UK,"Agriculture, food and related studies",40,40,20,21600,30000,42500,21600,30000,42500
201516,Tax year,National,K02000001,United Kingdom,2009/2010,5 YAG,Level 8,UK,Allied health,180,175,125,27400,39200,54900,27400,39200,54900
201516,Tax year,National,K02000001,United Kingdom,2009/2010,5 YAG,Level 8,UK,"Architecture, building and planning",75,70,45,22000,36600,45400,22000,36600,45400
201516,Tax year,National,K02000001,United Kingdom,2009/2010,5 YAG,Level 8,UK,Biosciences,760,710,495,27100,33300,40600,27100,33300,40600
201516,Tax year,National,K02000001,United Kingdom,2009/2010,5 YAG,Level 8,UK,Business and management,205,200,130,29600,43200,57500,29600,43200,57500
201516,Tax year,National,K02000001,United Kingdom,2009/2010,5 YAG,Level 8,UK,Celtic studies,0,0,0,28000,39000,45800,28000,39000,45800
201516,Tax year,National,K02000001,United Kingdom,2009/2010,5 YAG,Level 8,UK,Chemistry,485,460,325,30400,35500,43200,30400,35500,43200
201516,Tax year,National,K02000001,United Kingdom,2009/2010,5 YAG,Level 8,UK,Combined and general studies,5,5,5,36700,39200,42100,36700,39200,42100
201516,Tax year,National,K02000001,United Kingdom,2009/2010,5 YAG,Level 8,UK,Computing,240,225,155,31100,39200,50900,31100,39200,50900
201516,Tax year,National,K02000001,United Kingdom,2009/2010,5 YAG,Level 8,UK,Creative arts and design,95,90,50,10200,28200,38400,10200,28200,38400
201516,Tax year,National,K02000001,United Kingdom,2009/2010,5 YAG,Level 8,UK,Economics,70,60,35,32600,39200,50500,32600,39200,50500
201516,Tax year,National,K02000001,United Kingdom,2009/2010,5 YAG,Level 8,UK,Education and teaching,360,350,240,20100,38400,46800,20100,38400,46800
201516,Tax year,National,K02000001,United Kingdom,2009/2010,5 YAG,Level 8,UK,Engineering,675,620,445,34000,40600,51600,34000,40600,51600
201516,Tax year,National,K02000001,United Kingdom,2009/2010,5 YAG,Level 8,UK,English studies,230,225,140,17000,31500,38400,17000,31500,38400
201516,Tax year,National,K02000001,United Kingdom,2009/2010,5 YAG,Level 8,UK,"General, applied and forensic sciences",55,50,30,17200,33300,40600,17200,33300,40600
201516,Tax year,National,K02000001,United Kingdom,2009/2010,5 YAG,Level 8,UK,"Geography, earth and environmental studies",335,305,200,25300,33700,39200,25300,33700,39200
201516,Tax year,National,K02000001,United Kingdom,2009/2010,5 YAG,Level 8,UK,Health and social care,20,20,15,34800,42100,49800,34800,42100,49800
201516,Tax year,National,K02000001,United Kingdom,2009/2010,5 YAG,Level 8,UK,History and archaeology,380,365,250,15000,29600,37700,15000,29600,37700
201516,Tax year,National,K02000001,United Kingdom,2009/2010,5 YAG,Level 8,UK,Languages and area studies,170,155,95,21600,33300,40600,21600,33300,40600
201516,Tax year,National,K02000001,United Kingdom,2009/2010,5 YAG,Level 8,UK,Law,85,80,55,33300,42500,48700,33300,42500,48700
201516,Tax year,National,K02000001,United Kingdom,2009/2010,5 YAG,Level 8,UK,Materials and technology,155,150,100,28500,36200,45700,28500,36200,45700
201516,Tax year,National,K02000001,United Kingdom,2009/2010,5 YAG,Level 8,UK,Mathematical sciences,235,220,150,33700,39500,56400,33700,39500,56400
201516,Tax year,National,K02000001,United Kingdom,2009/2010,5 YAG,Level 8,UK,"Media, journalism and communications",65,60,40,23800,33300,40300,23800,33300,40300
201516,Tax year,National,K02000001,United Kingdom,2009/2010,5 YAG,Level 8,UK,Medical sciences,140,135,90,30700,40600,64800,30700,40600,64800
201516,Tax year,National,K02000001,United Kingdom,2009/2010,5 YAG,Level 8,UK,Medicine and dentistry,1170,1110,780,34000,51600,90800,34000,51600,90800
201516,Tax year,National,K02000001,United Kingdom,2009/2010,5 YAG,Level 8,UK,Nursing and midwifery,85,80,60,27100,38400,48300,27100,38400,48300
201516,Tax year,National,K02000001,United Kingdom,2009/2010,5 YAG,Level 8,UK,Performing arts,135,125,85,13500,27800,37800,13500,27800,37800
201516,Tax year,National,K02000001,United Kingdom,2009/2010,5 YAG,Level 8,UK,"Pharmacology, toxicology and pharmacy",125,120,70,28900,36200,49000,28900,36200,49000
201516,Tax year,National,K02000001,United Kingdom,2009/2010,5 YAG,Level 8,UK,Philosophy and religious studies,155,145,80,18500,30400,41400,18500,30400,41400
201516,Tax year,National,K02000001,United Kingdom,2009/2010,5 YAG,Level 8,UK,Physics and astronomy,420,375,270,31500,35900,42800,31500,35900,42800
201516,Tax year,National,K02000001,United Kingdom,2009/2010,5 YAG,Level 8,UK,Politics,120,110,75,25600,35900,41700,25600,35900,41700
201516,Tax year,National,K02000001,United Kingdom,2009/2010,5 YAG,Level 8,UK,Psychology,910,890,635,22500,34000,42500,22500,34000,42500
201516,Tax year,National,K02000001,United Kingdom,2009/2010,5 YAG,Level 8,UK,"Sociology, social policy and anthropology",280,270,200,23800,37000,43900,23800,37000,43900
201516,Tax year,National,K02000001,United Kingdom,2009/2010,5 YAG,Level 8,UK,Sport and exercise sciences,80,75,55,31500,38400,43600,31500,38400,43600
201516,Tax year,National,K02000001,United Kingdom,2009/2010,5 YAG,Level 8,UK,Veterinary sciences,30,30,20,29300,34000,40600,29300,34000,40600
201516,Tax year,National,K02000001,United Kingdom,2011/2012,3 YAG,First-degree,UK,"Agriculture, food and related studies",2155,2120,1485,13900,18700,24900,13900,18700,24900
201516,Tax year,National,K02000001,United Kingdom,2011/2012,3 YAG,First-degree,UK,Allied health,8920,8760,5835,16500,23100,27400,16500,23100,27400
201516,Tax year,National,K02000001,United Kingdom,2011/2012,3 YAG,First-degree,UK,"Architecture, building and planning",6970,6820,4610,21600,28500,37300,21600,28500,37300
201516,Tax year,National,K02000001,United Kingdom,2011/2012,3 YAG,First-degree,UK,Biosciences,8155,7945,4640,16500,21600,27100,16500,21600,27100
201516,Tax year,National,K02000001,United Kingdom,2011/2012,3 YAG,First-degree,UK,Business and management,32325,31615,24500,17600,23100,30000,17600,23100,30000
201516,Tax year,National,K02000001,United Kingdom,2011/2012,3 YAG,First-degree,UK,Celtic studies,25,25,15,14600,22300,26000,14600,22300,26000
201516,Tax year,National,K02000001,United Kingdom,2011/2012,3 YAG,First-degree,UK,Chemistry,2580,2525,1525,19800,24500,31100,19800,24500,31100
201516,Tax year,National,K02000001,United Kingdom,2011/2012,3 YAG,First-degree,UK,Combined and general studies,5625,5520,3310,12800,21600,30400,12800,21600,30400
201516,Tax year,National,K02000001,United Kingdom,2011/2012,3 YAG,First-degree,UK,Computing,10055,9900,7710,18300,24900,32200,18300,24900,32200
201516,Tax year,National,K02000001,United Kingdom,2011/2012,3 YAG,First-degree,UK,Creative arts and design,21940,21475,15895,12800,17900,23400,12800,17900,23400
201516,Tax year,National,K02000001,United Kingdom,2011/2012,3 YAG,First-degree,UK,Economics,4885,4770,3715,23800,31500,41400,23800,31500,41400
201516,Tax year,National,K02000001,United Kingdom,2011/2012,3 YAG,First-degree,UK,Education and teaching,15210,14950,12040,15000,21600,24900,15000,21600,24900
201516,Tax year,National,K02000001,United Kingdom,2011/2012,3 YAG,First-degree,UK,Engineering,11150,10915,8070,23400,30400,37300,23400,30400,37300
201516,Tax year,National,K02000001,United Kingdom,2011/2012,3 YAG,First-degree,UK,English studies,12255,11910,8315,15000,20900,25300,15000,20900,25300
201516,Tax year,National,K02000001,United Kingdom,2011/2012,3 YAG,First-degree,UK,"General, applied and forensic sciences",1835,1805,1300,15700,20100,25300,15700,20100,25300
201516,Tax year,National,K02000001,United Kingdom,2011/2012,3 YAG,First-degree,UK,"Geography, earth and environmental studies",7050,6795,4990,18700,23800,30000,18700,23800,30000
201516,Tax year,National,K02000001,United Kingdom,2011/2012,3 YAG,First-degree,UK,Health and social care,7325,7270,5105,14300,21200,27400,14300,21200,27400
201516,Tax year,National,K02000001,United Kingdom,2011/2012,3 YAG,First-degree,UK,History and archaeology,11095,10800,7530,16800,22300,28200,16800,22300,28200
201516,Tax year,National,K02000001,United Kingdom,2011/2012,3 YAG,First-degree,UK,Languages and area studies,5935,5485,3630,18700,24200,30000,18700,24200,30000
201516,Tax year,National,K02000001,United Kingdom,2011/2012,3 YAG,First-degree,UK,Law,11605,11440,8615,16500,21200,28200,16500,21200,28200
201516,Tax year,National,K02000001,United Kingdom,2011/2012,3 YAG,First-degree,UK,Materials and technology,1900,1845,1325,14600,20500,27800,14600,20500,27800
201516,Tax year,National,K02000001,United Kingdom,2011/2012,3 YAG,First-degree,UK,Mathematical sciences,5150,5030,3710,22300,27800,36600,22300,27800,36600
201516,Tax year,National,K02000001,United Kingdom,2011/2012,3 YAG,First-degree,UK,"Media, journalism and communications",9025,8825,6905,14600,19400,24500,14600,19400,24500
201516,Tax year,National,K02000001,United Kingdom,2011/2012,3 YAG,First-degree,UK,Medical sciences,2985,2925,1590,21600,26700,32900,21600,26700,32900
201516,Tax year,National,K02000001,United Kingdom,2011/2012,3 YAG,First-degree,UK,Medicine and dentistry,7050,6780,4935,36600,42800,45800,36600,42800,45800
201516,Tax year,National,K02000001,United Kingdom,2011/2012,3 YAG,First-degree,UK,Nursing and midwifery,12380,12245,7340,21200,27100,32200,21200,27100,32200
201516,Tax year,National,K02000001,United Kingdom,2011/2012,3 YAG,First-degree,UK,Performing arts,11090,10875,7720,11400,16800,22300,11400,16800,22300
201516,Tax year,National,K02000001,United Kingdom,2011/2012,3 YAG,First-degree,UK,"Pharmacology, toxicology and pharmacy",2595,2570,1405,18700,30000,39200,18700,30000,39200
201516,Tax year,National,K02000001,United Kingdom,2011/2012,3 YAG,First-degree,UK,Philosophy and religious studies,3425,3325,2125,16100,22300,28200,16100,22300,28200
201516,Tax year,National,K02000001,United Kingdom,2011/2012,3 YAG,First-degree,UK,Physics and astronomy,2170,2110,1120,22300,28500,36600,22300,28500,36600
201516,Tax year,National,K02000001,United Kingdom,2011/2012,3 YAG,First-degree,UK,Politics,4765,4610,3160,18300,24500,31100,18300,24500,31100
201516,Tax year,National,K02000001,United Kingdom,2011/2012,3 YAG,First-degree,UK,Psychology,11310,11095,7180,15000,20100,24900,15000,20100,24900
201516,Tax year,National,K02000001,United Kingdom,2011/2012,3 YAG,First-degree,UK,"Sociology, social policy and anthropology",9610,9430,6730,14700,20100,24900,14700,20100,24900
201516,Tax year,National,K02000001,United Kingdom,2011/2012,3 YAG,First-degree,UK,Sport and exercise sciences,8045,7845,5800,15400,20100,24900,15400,20100,24900
201516,Tax year,National,K02000001,United Kingdom,2011/2012,3 YAG,First-degree,UK,Veterinary sciences,745,725,510,22700,31100,36200,22700,31100,36200
201516,Tax year,National,K02000001,United Kingdom,2011/2012,3 YAG,Level 7,UK,"Agriculture, food and related studies",390,375,235,18900,25600,33900,18900,25600,33900
201516,Tax year,National,K02000001,United Kingdom,2011/2012,3 YAG,Level 7,UK,Allied health,5320,5235,3420,19800,28900,38400,19800,28900,38400
201516,Tax year,National,K02000001,United Kingdom,2011/2012,3 YAG,Level 7,UK,"Architecture, building and planning",3820,3720,2740,24900,32600,41700,24900,32600,41700
201516,Tax year,National,K02000001,United Kingdom,2011/2012,3 YAG,Level 7,UK,Biosciences,1400,1355,700,19800,26400,34400,19800,26400,34400
201516,Tax year,National,K02000001,United Kingdom,2011/2012,3 YAG,Level 7,UK,Business and management,12100,11810,8080,24900,35900,50100,24900,35900,50100
201516,Tax year,National,K02000001,United Kingdom,2011/2012,3 YAG,Level 7,UK,Celtic studies,10,10,5,15000,19800,30700,15000,19800,30700
201516,Tax year,National,K02000001,United Kingdom,2011/2012,3 YAG,Level 7,UK,Chemistry,220,205,85,18700,24200,31500,18700,24200,31500
201516,Tax year,National,K02000001,United Kingdom,2011/2012,3 YAG,Level 7,UK,Combined and general studies,630,620,325,17200,27100,39200,17200,27100,39200
201516,Tax year,National,K02000001,United Kingdom,2011/2012,3 YAG,Level 7,UK,Computing,2160,2090,1320,23100,34000,48300,23100,34000,48300
201516,Tax year,National,K02000001,United Kingdom,2011/2012,3 YAG,Level 7,UK,Creative arts and design,2525,2450,1500,10800,20000,28900,10800,20000,28900
201516,Tax year,National,K02000001,United Kingdom,2011/2012,3 YAG,Level 7,UK,Economics,770,735,455,30000,39900,54500,30000,39900,54500
201516,Tax year,National,K02000001,United Kingdom,2011/2012,3 YAG,Level 7,UK,Education and teaching,14925,14625,10555,24200,34400,41400,24200,34400,41400
201516,Tax year,National,K02000001,United Kingdom,2011/2012,3 YAG,Level 7,UK,Engineering,3180,3080,1975,26700,35500,47900,26700,35500,47900
201516,Tax year,National,K02000001,United Kingdom,2011/2012,3 YAG,Level 7,UK,English studies,2405,2335,1315,13200,21600,28900,13200,21600,28900
201516,Tax year,National,K02000001,United Kingdom,2011/2012,3 YAG,Level 7,UK,"General, applied and forensic sciences",525,515,300,18300,23400,29300,18300,23400,29300
201516,Tax year,National,K02000001,United Kingdom,2011/2012,3 YAG,Level 7,UK,"Geography, earth and environmental studies",1775,1695,1050,23100,29300,37300,23100,29300,37300
201516,Tax year,National,K02000001,United Kingdom,2011/2012,3 YAG,Level 7,UK,Health and social care,3150,3115,1990,18700,27800,34800,18700,27800,34800
201516,Tax year,National,K02000001,United Kingdom,2011/2012,3 YAG,Level 7,UK,History and archaeology,2555,2485,1380,17200,23800,31500,17200,23800,31500
201516,Tax year,National,K02000001,United Kingdom,2011/2012,3 YAG,Level 7,UK,Languages and area studies,1265,1170,595,16100,24900,31800,16100,24900,31800
201516,Tax year,National,K02000001,United Kingdom,2011/2012,3 YAG,Level 7,UK,Law,4870,4770,3310,19400,28200,43200,19400,28200,43200
201516,Tax year,National,K02000001,United Kingdom,2011/2012,3 YAG,Level 7,UK,MBA,3120,2980,1975,34800,57800,85300,34800,57800,85300
201516,Tax year,National,K02000001,United Kingdom,2011/2012,3 YAG,Level 7,UK,Materials and technology,685,650,360,22700,32900,46500,22700,32900,46500
201516,Tax year,National,K02000001,United Kingdom,2011/2012,3 YAG,Level 7,UK,Mathematical sciences,660,645,360,28100,37300,47900,28100,37300,47900
201516,Tax year,National,K02000001,United Kingdom,2011/2012,3 YAG,Level 7,UK,"Media, journalism and communications",2315,2240,1575,19000,25600,32200,19000,25600,32200
201516,Tax year,National,K02000001,United Kingdom,2011/2012,3 YAG,Level 7,UK,Medical sciences,895,880,535,25600,33300,42100,25600,33300,42100
201516,Tax year,National,K02000001,United Kingdom,2011/2012,3 YAG,Level 7,UK,Medicine and dentistry,3055,2950,1635,26000,39200,57100,26000,39200,57100
201516,Tax year,National,K02000001,United Kingdom,2011/2012,3 YAG,Level 7,UK,Nursing and midwifery,3315,3270,2055,24200,32600,41000,24200,32600,41000
201516,Tax year,National,K02000001,United Kingdom,2011/2012,3 YAG,Level 7,UK,PGCE,17260,16765,13585,22000,25300,28500,22000,25300,28500
201516,Tax year,National,K02000001,United Kingdom,2011/2012,3 YAG,Level 7,UK,Performing arts,1585,1535,930,11700,19600,27100,11700,19600,27100
201516,Tax year,National,K02000001,United Kingdom,2011/2012,3 YAG,Level 7,UK,"Pharmacology, toxicology and pharmacy",975,955,540,23400,34400,42100,23400,34400,42100
201516,Tax year,National,K02000001,United Kingdom,2011/2012,3 YAG,Level 7,UK,Philosophy and religious studies,1065,1040,470,15700,24200,35600,15700,24200,35600
201516,Tax year,National,K02000001,United Kingdom,2011/2012,3 YAG,Level 7,UK,Physics and astronomy,360,345,175,27100,32600,40300,27100,32600,40300
201516,Tax year,National,K02000001,United Kingdom,2011/2012,3 YAG,Level 7,UK,Politics,1985,1900,1150,23100,31500,45400,23100,31500,45400
201516,Tax year,National,K02000001,United Kingdom,2011/2012,3 YAG,Level 7,UK,Psychology,3640,3565,1965,17900,24900,33700,17900,24900,33700
201516,Tax year,National,K02000001,United Kingdom,2011/2012,3 YAG,Level 7,UK,"Sociology, social policy and anthropology",2960,2870,1700,21200,30400,40300,21200,30400,40300
201516,Tax year,National,K02000001,United Kingdom,2011/2012,3 YAG,Level 7,UK,Sport and exercise sciences,670,655,440,19400,25600,32900,19400,25600,32900
201516,Tax year,National,K02000001,United Kingdom,2011/2012,3 YAG,Level 7,UK,Veterinary sciences,115,115,55,17400,29400,38400,17400,29400,38400
201516,Tax year,National,K02000001,United Kingdom,2011/2012,3 YAG,Level 8,UK,"Agriculture, food and related studies",50,50,30,22300,31100,41400,22300,31100,41400
201516,Tax year,National,K02000001,United Kingdom,2011/2012,3 YAG,Level 8,UK,Allied health,200,190,140,27400,37300,50900,27400,37300,50900
201516,Tax year,National,K02000001,United Kingdom,2011/2012,3 YAG,Level 8,UK,"Architecture, building and planning",75,70,45,23800,31500,39900,23800,31500,39900
201516,Tax year,National,K02000001,United Kingdom,2011/2012,3 YAG,Level 8,UK,Biosciences,720,675,470,27400,31100,35100,27400,31100,35100
201516,Tax year,National,K02000001,United Kingdom,2011/2012,3 YAG,Level 8,UK,Business and management,255,245,150,30000,41400,48700,30000,41400,48700
201516,Tax year,National,K02000001,United Kingdom,2011/2012,3 YAG,Level 8,UK,Celtic studies,5,5,0,12400,12400,28500,12400,12400,28500
201516,Tax year,National,K02000001,United Kingdom,2011/2012,3 YAG,Level 8,UK,Chemistry,460,435,325,28200,32900,37700,28200,32900,37700
201516,Tax year,National,K02000001,United Kingdom,2011/2012,3 YAG,Level 8,UK,Combined and general studies,5,5,5,10900,19300,29500,10900,19300,29500
201516,Tax year,National,K02000001,United Kingdom,2011/2012,3 YAG,Level 8,UK,Computing,275,260,175,31800,39500,50100,31800,39500,50100
201516,Tax year,National,K02000001,United Kingdom,2011/2012,3 YAG,Level 8,UK,Creative arts and design,100,95,65,13700,26700,37300,13700,26700,37300
201516,Tax year,National,K02000001,United Kingdom,2011/2012,3 YAG,Level 8,UK,Economics,60,55,35,32200,38800,52200,32200,38800,52200
201516,Tax year,National,K02000001,United Kingdom,2011/2012,3 YAG,Level 8,UK,Education and teaching,385,375,275,23100,37300,45800,23100,37300,45800
201516,Tax year,National,K02000001,United Kingdom,2011/2012,3 YAG,Level 8,UK,Engineering,715,670,465,31500,38100,46100,31500,38100,46100
201516,Tax year,National,K02000001,United Kingdom,2011/2012,3 YAG,Level 8,UK,English studies,285,275,160,15700,27800,33700,15700,27800,33700
201516,Tax year,National,K02000001,United Kingdom,2011/2012,3 YAG,Level 8,UK,"General, applied and forensic sciences",50,50,40,25600,30700,35100,25600,30700,35100
201516,Tax year,National,K02000001,United Kingdom,2011/2012,3 YAG,Level 8,UK,"Geography, earth and environmental studies",360,340,225,26000,32200,37700,26000,32200,37700
201516,Tax year,National,K02000001,United Kingdom,2011/2012,3 YAG,Level 8,UK,Health and social care,35,35,30,25300,38800,46500,25300,38800,46500
201516,Tax year,National,K02000001,United Kingdom,2011/2012,3 YAG,Level 8,UK,History and archaeology,430,420,265,17600,28200,34800,17600,28200,34800
201516,Tax year,National,K02000001,United Kingdom,2011/2012,3 YAG,Level 8,UK,Languages and area studies,170,160,100,14600,28900,34800,14600,28900,34800
201516,Tax year,National,K02000001,United Kingdom,2011/2012,3 YAG,Level 8,UK,Law,100,95,50,33700,39500,46800,33700,39500,46800
201516,Tax year,National,K02000001,United Kingdom,2011/2012,3 YAG,Level 8,UK,Materials and technology,140,130,85,30700,35500,42500,30700,35500,42500
201516,Tax year,National,K02000001,United Kingdom,2011/2012,3 YAG,Level 8,UK,Mathematical sciences,235,220,145,29300,34800,42800,29300,34800,42800
201516,Tax year,National,K02000001,United Kingdom,2011/2012,3 YAG,Level 8,UK,"Media, journalism and communications",60,55,35,22000,34800,43600,22000,34800,43600
201516,Tax year,National,K02000001,United Kingdom,2011/2012,3 YAG,Level 8,UK,Medical sciences,155,140,90,31100,35300,57500,31100,35300,57500
201516,Tax year,National,K02000001,United Kingdom,2011/2012,3 YAG,Level 8,UK,Medicine and dentistry,1155,1095,760,32600,44300,75000,32600,44300,75000
201516,Tax year,National,K02000001,United Kingdom,2011/2012,3 YAG,Level 8,UK,Nursing and midwifery,70,70,50,33300,43200,47200,33300,43200,47200
201516,Tax year,National,K02000001,United Kingdom,2011/2012,3 YAG,Level 8,UK,Performing arts,140,135,90,16100,24600,38200,16100,24600,38200
201516,Tax year,National,K02000001,United Kingdom,2011/2012,3 YAG,Level 8,UK,"Pharmacology, toxicology and pharmacy",120,115,75,28500,33700,38400,28500,33700,38400
201516,Tax year,National,K02000001,United Kingdom,2011/2012,3 YAG,Level 8,UK,Philosophy and religious studies,200,185,110,14300,26400,36600,14300,26400,36600
201516,Tax year,National,K02000001,United Kingdom,2011/2012,3 YAG,Level 8,UK,Physics and astronomy,430,380,265,30700,34400,41700,30700,34400,41700
201516,Tax year,National,K02000001,United Kingdom,2011/2012,3 YAG,Level 8,UK,Politics,125,115,70,22000,32600,39500,22000,32600,39500
201516,Tax year,National,K02000001,United Kingdom,2011/2012,3 YAG,Level 8,UK,Psychology,990,970,710,24000,34000,39900,24000,34000,39900
201516,Tax year,National,K02000001,United Kingdom,2011/2012,3 YAG,Level 8,UK,"Sociology, social policy and anthropology",315,305,190,23400,32600,39500,23400,32600,39500
201516,Tax year,National,K02000001,United Kingdom,2011/2012,3 YAG,Level 8,UK,Sport and exercise sciences,85,80,60,29300,32200,36600,29300,32200,36600
201516,Tax year,National,K02000001,United Kingdom,2011/2012,3 YAG,Level 8,UK,Veterinary sciences,45,45,30,25300,31800,37300,25300,31800,37300
201516,Tax year,National,K02000001,United Kingdom,2013/2014,1 YAG,First-degree,UK,"Agriculture, food and related studies",2445,2405,1655,12100,16100,21200,12100,16100,21200
201516,Tax year,National,K02000001,United Kingdom,2013/2014,1 YAG,First-degree,UK,Allied health,9920,9815,6565,14600,20500,23400,14600,20500,23400
201516,Tax year,National,K02000001,United Kingdom,2013/2014,1 YAG,First-degree,UK,"Architecture, building and planning",5935,5865,4075,18300,23400,28900,18300,23400,28900
201516,Tax year,National,K02000001,United Kingdom,2013/2014,1 YAG,First-degree,UK,Biosciences,10130,9870,4995,12400,17200,21600,12400,17200,21600
201516,Tax year,National,K02000001,United Kingdom,2013/2014,1 YAG,First-degree,UK,Business and management,35195,34585,26150,15000,19400,24500,15000,19400,24500
201516,Tax year,National,K02000001,United Kingdom,2013/2014,1 YAG,First-degree,UK,Celtic studies,20,15,5,9900,15700,20900,9900,15700,20900
201516,Tax year,National,K02000001,United Kingdom,2013/2014,1 YAG,First-degree,UK,Chemistry,3075,3010,1650,16500,20900,26000,16500,20900,26000
201516,Tax year,National,K02000001,United Kingdom,2013/2014,1 YAG,First-degree,UK,Combined and general studies,5025,4945,2650,11700,19400,27800,11700,19400,27800
201516,Tax year,National,K02000001,United Kingdom,2013/2014,1 YAG,First-degree,UK,Computing,11050,10960,8135,15400,20900,26700,15400,20900,26700
201516,Tax year,National,K02000001,United Kingdom,2013/2014,1 YAG,First-degree,UK,Creative arts and design,23370,22915,16515,10200,15000,19000,10200,15000,19000
201516,Tax year,National,K02000001,United Kingdom,2013/2014,1 YAG,First-degree,UK,Economics,5435,5315,3705,18700,24500,30400,18700,24500,30400
201516,Tax year,National,K02000001,United Kingdom,2013/2014,1 YAG,First-degree,UK,Education and teaching,16230,16070,11840,12800,18300,21200,12800,18300,21200
201516,Tax year,National,K02000001,United Kingdom,2013/2014,1 YAG,First-degree,UK,Engineering,12570,12355,8865,20100,25600,30700,20100,25600,30700
201516,Tax year,National,K02000001,United Kingdom,2013/2014,1 YAG,First-degree,UK,English studies,13020,12715,7365,11000,16100,20100,11000,16100,20100
201516,Tax year,National,K02000001,United Kingdom,2013/2014,1 YAG,First-degree,UK,"General, applied and forensic sciences",1780,1755,1135,13200,16800,20900,13200,16800,20900
201516,Tax year,National,K02000001,United Kingdom,2013/2014,1 YAG,First-degree,UK,"Geography, earth and environmental studies",8100,7860,4735,13600,18700,23800,13600,18700,23800
201516,Tax year,National,K02000001,United Kingdom,2013/2014,1 YAG,First-degree,UK,Health and social care,7690,7645,5295,13500,19800,25600,13500,19800,25600
201516,Tax year,National,K02000001,United Kingdom,2013/2014,1 YAG,First-degree,UK,History and archaeology,11755,11475,6550,12100,17200,22300,12100,17200,22300
201516,Tax year,National,K02000001,United Kingdom,2013/2014,1 YAG,First-degree,UK,Languages and area studies,6045,5565,3175,14300,19600,24500,14300,19600,24500
201516,Tax year,National,K02000001,United Kingdom,2013/2014,1 YAG,First-degree,UK,Law,11620,11470,7285,12800,17200,22300,12800,17200,22300
201516,Tax year,National,K02000001,United Kingdom,2013/2014,1 YAG,First-degree,UK,Materials and technology,1805,1775,1255,11700,16500,22700,11700,16500,22700
201516,Tax year,National,K02000001,United Kingdom,2013/2014,1 YAG,First-degree,UK,Mathematical sciences,6050,5955,3680,17600,22300,28200,17600,22300,28200
201516,Tax year,National,K02000001,United Kingdom,2013/2014,1 YAG,First-degree,UK,"Media, journalism and communications",9250,9075,6795,11000,15700,19400,11000,15700,19400
201516,Tax year,National,K02000001,United Kingdom,2013/2014,1 YAG,First-degree,UK,Medical sciences,3145,3115,1710,19800,23800,27400,19800,23800,27400
201516,Tax year,National,K02000001,United Kingdom,2013/2014,1 YAG,First-degree,UK,Medicine and dentistry,6945,6915,5310,32600,35900,37700,32600,35900,37700
201516,Tax year,National,K02000001,United Kingdom,2013/2014,1 YAG,First-degree,UK,Nursing and midwifery,15385,15325,10350,22000,25300,29600,22000,25300,29600
201516,Tax year,National,K02000001,United Kingdom,2013/2014,1 YAG,First-degree,UK,Performing arts,11955,11785,7850,8800,12800,17200,8800,12800,17200
201516,Tax year,National,K02000001,United Kingdom,2013/2014,1 YAG,First-degree,UK,"Pharmacology, toxicology and pharmacy",2765,2750,1255,14300,22700,27400,14300,22700,27400
201516,Tax year,National,K02000001,United Kingdom,2013/2014,1 YAG,First-degree,UK,Philosophy and religious studies,3535,3445,1845,11700,17600,22700,11700,17600,22700
201516,Tax year,National,K02000001,United Kingdom,2013/2014,1 YAG,First-degree,UK,Physics and astronomy,2570,2505,1180,18200,23800,28900,18200,23800,28900
201516,Tax year,National,K02000001,United Kingdom,2013/2014,1 YAG,First-degree,UK,Politics,5180,5015,2895,13900,19400,24500,13900,19400,24500
201516,Tax year,National,K02000001,United Kingdom,2013/2014,1 YAG,First-degree,UK,Psychology,12950,12720,7535,12100,16100,20100,12100,16100,20100
201516,Tax year,National,K02000001,United Kingdom,2013/2014,1 YAG,First-degree,UK,"Sociology, social policy and anthropology",11555,11345,7480,12100,16500,20500,12100,16500,20500
201516,Tax year,National,K02000001,United Kingdom,2013/2014,1 YAG,First-degree,UK,Sport and exercise sciences,9795,9590,6235,11300,15400,19800,11300,15400,19800
201516,Tax year,National,K02000001,United Kingdom,2013/2014,1 YAG,First-degree,UK,Veterinary sciences,740,725,605,20500,26400,30000,20500,26400,30000
201516,Tax year,National,K02000001,United Kingdom,2013/2014,1 YAG,Level 7,UK,"Agriculture, food and related studies",365,355,250,16500,23400,30400,16500,23400,30400
201516,Tax year,National,K02000001,United Kingdom,2013/2014,1 YAG,Level 7,UK,Allied health,5360,5280,3480,19400,26000,37000,19400,26000,37000
201516,Tax year,National,K02000001,United Kingdom,2013/2014,1 YAG,Level 7,UK,"Architecture, building and planning",3165,3110,2265,24300,30000,37000,24300,30000,37000
201516,Tax year,National,K02000001,United Kingdom,2013/2014,1 YAG,Level 7,UK,Biosciences,1490,1445,780,17200,23400,30700,17200,23400,30700
201516,Tax year,National,K02000001,United Kingdom,2013/2014,1 YAG,Level 7,UK,Business and management,10510,10270,7095,23400,32900,46800,23400,32900,46800
201516,Tax year,National,K02000001,United Kingdom,2013/2014,1 YAG,Level 7,UK,Celtic studies,10,10,5,16100,26700,26700,16100,26700,26700
201516,Tax year,National,K02000001,United Kingdom,2013/2014,1 YAG,Level 7,UK,Chemistry,235,230,110,16500,23400,28300,16500,23400,28300
201516,Tax year,National,K02000001,United Kingdom,2013/2014,1 YAG,Level 7,UK,Combined and general studies,580,570,310,18300,27100,35100,18300,27100,35100
201516,Tax year,National,K02000001,United Kingdom,2013/2014,1 YAG,Level 7,UK,Computing,1635,1605,1045,22300,30700,42200,22300,30700,42200
201516,Tax year,National,K02000001,United Kingdom,2013/2014,1 YAG,Level 7,UK,Creative arts and design,2360,2325,1425,10200,17900,25600,10200,17900,25600
201516,Tax year,National,K02000001,United Kingdom,2013/2014,1 YAG,Level 7,UK,Economics,775,755,480,24200,31100,42500,24200,31100,42500
201516,Tax year,National,K02000001,United Kingdom,2013/2014,1 YAG,Level 7,UK,Education and teaching,13960,13690,10115,24900,33700,40600,24900,33700,40600
201516,Tax year,National,K02000001,United Kingdom,2013/2014,1 YAG,Level 7,UK,Engineering,2660,2595,1725,26000,34400,46800,26000,34400,46800
201516,Tax year,National,K02000001,United Kingdom,2013/2014,1 YAG,Level 7,UK,English studies,2260,2205,1175,12400,20100,27100,12400,20100,27100
201516,Tax year,National,K02000001,United Kingdom,2013/2014,1 YAG,Level 7,UK,"General, applied and forensic sciences",375,365,240,16800,21600,27100,16800,21600,27100
201516,Tax year,National,K02000001,United Kingdom,2013/2014,1 YAG,Level 7,UK,"Geography, earth and environmental studies",1510,1470,980,20100,26000,33300,20100,26000,33300
201516,Tax year,National,K02000001,United Kingdom,2013/2014,1 YAG,Level 7,UK,Health and social care,3470,3450,2275,21200,27100,32600,21200,27100,32600
201516,Tax year,National,K02000001,United Kingdom,2013/2014,1 YAG,Level 7,UK,History and archaeology,2495,2445,1315,15000,20500,27100,15000,20500,27100
201516,Tax year,National,K02000001,United Kingdom,2013/2014,1 YAG,Level 7,UK,Languages and area studies,1055,1000,540,14600,21600,27400,14600,21600,27400
201516,Tax year,National,K02000001,United Kingdom,2013/2014,1 YAG,Level 7,UK,Law,3940,3880,2615,17200,23800,37700,17200,23800,37700
201516,Tax year,National,K02000001,United Kingdom,2013/2014,1 YAG,Level 7,UK,MBA,2610,2485,1830,35900,57100,84900,35900,57100,84900
201516,Tax year,National,K02000001,United Kingdom,2013/2014,1 YAG,Level 7,UK,Materials and technology,545,520,300,21600,31800,45800,21600,31800,45800
201516,Tax year,National,K02000001,United Kingdom,2013/2014,1 YAG,Level 7,UK,Mathematical sciences,655,645,330,23400,30400,41400,23400,30400,41400
201516,Tax year,National,K02000001,United Kingdom,2013/2014,1 YAG,Level 7,UK,"Media, journalism and communications",2115,2075,1515,16800,22000,27400,16800,22000,27400
201516,Tax year,National,K02000001,United Kingdom,2013/2014,1 YAG,Level 7,UK,Medical sciences,865,850,530,22300,30000,39200,22300,30000,39200
201516,Tax year,National,K02000001,United Kingdom,2013/2014,1 YAG,Level 7,UK,Medicine and dentistry,3100,3020,1765,26400,37300,54500,26400,37300,54500
201516,Tax year,National,K02000001,United Kingdom,2013/2014,1 YAG,Level 7,UK,Nursing and midwifery,4505,4475,2740,23400,29300,37700,23400,29300,37700
201516,Tax year,National,K02000001,United Kingdom,2013/2014,1 YAG,Level 7,UK,PGCE,19275,19120,16570,20900,21200,23400,20900,21200,23400
201516,Tax year,National,K02000001,United Kingdom,2013/2014,1 YAG,Level 7,UK,Performing arts,1540,1515,940,10200,15700,22300,10200,15700,22300
201516,Tax year,National,K02000001,United Kingdom,2013/2014,1 YAG,Level 7,UK,"Pharmacology, toxicology and pharmacy",1015,995,570,25300,34400,42800,25300,34400,42800
201516,Tax year,National,K02000001,United Kingdom,2013/2014,1 YAG,Level 7,UK,Philosophy and religious studies,1045,1025,490,15400,21200,30000,15400,21200,30000
201516,Tax year,National,K02000001,United Kingdom,2013/2014,1 YAG,Level 7,UK,Physics and astronomy,310,310,140,22000,29300,39200,22000,29300,39200
201516,Tax year,National,K02000001,United Kingdom,2013/2014,1 YAG,Level 7,UK,Politics,1985,1920,1155,20100,26700,38100,20100,26700,38100
201516,Tax year,National,K02000001,United Kingdom,2013/2014,1 YAG,Level 7,UK,Psychology,4160,4090,2490,16800,22300,30400,16800,22300,30400
201516,Tax year,National,K02000001,United Kingdom,2013/2014,1 YAG,Level 7,UK,"Sociology, social policy and anthropology",2860,2785,1720,18700,26700,36600,18700,26700,36600
201516,Tax year,National,K02000001,United Kingdom,2013/2014,1 YAG,Level 7,UK,Sport and exercise sciences,750,735,490,16100,21600,27400,16100,21600,27400
201516,Tax year,National,K02000001,United Kingdom,2013/2014,1 YAG,Level 7,UK,Veterinary sciences,140,135,80,15700,29200,42800,15700,29200,42800
201516,Tax year,National,K02000001,United Kingdom,2013/2014,1 YAG,Level 8,UK,"Agriculture, food and related studies",50,45,30,25100,30700,33900,25100,30700,33900
201516,Tax year,National,K02000001,United Kingdom,2013/2014,1 YAG,Level 8,UK,Allied health,255,250,195,27400,34800,49500,27400,34800,49500
201516,Tax year,National,K02000001,United Kingdom,2013/2014,1 YAG,Level 8,UK,"Architecture, building and planning",80,80,55,21600,31500,41400,21600,31500,41400
201516,Tax year,National,K02000001,United Kingdom,2013/2014,1 YAG,Level 8,UK,Biosciences,770,725,525,26400,30000,33300,26400,30000,33300
201516,Tax year,National,K02000001,United Kingdom,2013/2014,1 YAG,Level 8,UK,Business and management,275,265,175,28600,41000,50900,28600,41000,50900
201516,Tax year,National,K02000001,United Kingdom,2013/2014,1 YAG,Level 8,UK,Celtic studies,0,0,0,32600,38200,43900,32600,38200,43900
201516,Tax year,National,K02000001,United Kingdom,2013/2014,1 YAG,Level 8,UK,Chemistry,540,515,395,25600,29600,32900,25600,29600,32900
201516,Tax year,National,K02000001,United Kingdom,2013/2014,1 YAG,Level 8,UK,Combined and general studies,25,20,15,10200,23400,36200,10200,23400,36200
201516,Tax year,National,K02000001,United Kingdom,2013/2014,1 YAG,Level 8,UK,Computing,245,235,185,30000,35900,45400,30000,35900,45400
201516,Tax year,National,K02000001,United Kingdom,2013/2014,1 YAG,Level 8,UK,Creative arts and design,120,120,75,11700,23400,34000,11700,23400,34000
201516,Tax year,National,K02000001,United Kingdom,2013/2014,1 YAG,Level 8,UK,Economics,75,70,50,28200,32600,46100,28200,32600,46100
201516,Tax year,National,K02000001,United Kingdom,2013/2014,1 YAG,Level 8,UK,Education and teaching,405,395,300,24900,39200,46800,24900,39200,46800
201516,Tax year,National,K02000001,United Kingdom,2013/2014,1 YAG,Level 8,UK,Engineering,825,785,575,28900,32900,40300,28900,32900,40300
201516,Tax year,National,K02000001,United Kingdom,2013/2014,1 YAG,Level 8,UK,English studies,305,295,185,12600,22000,29300,12600,22000,29300
201516,Tax year,National,K02000001,United Kingdom,2013/2014,1 YAG,Level 8,UK,"General, applied and forensic sciences",65,60,45,22700,28500,32900,22700,28500,32900
201516,Tax year,National,K02000001,United Kingdom,2013/2014,1 YAG,Level 8,UK,"Geography, earth and environmental studies",415,380,270,23400,29300,32900,23400,29300,32900
201516,Tax year,National,K02000001,United Kingdom,2013/2014,1 YAG,Level 8,UK,Health and social care,40,40,25,19000,32200,42500,19000,32200,42500
201516,Tax year,National,K02000001,United Kingdom,2013/2014,1 YAG,Level 8,UK,History and archaeology,455,445,300,14300,22400,30400,14300,22400,30400
201516,Tax year,National,K02000001,United Kingdom,2013/2014,1 YAG,Level 8,UK,Languages and area studies,180,170,100,12800,21200,29300,12800,21200,29300
201516,Tax year,National,K02000001,United Kingdom,2013/2014,1 YAG,Level 8,UK,Law,115,110,70,27800,35100,43300,27800,35100,43300
201516,Tax year,National,K02000001,United Kingdom,2013/2014,1 YAG,Level 8,UK,Materials and technology,155,150,120,28900,32900,38100,28900,32900,38100
201516,Tax year,National,K02000001,United Kingdom,2013/2014,1 YAG,Level 8,UK,Mathematical sciences,230,215,155,26700,31800,37700,26700,31800,37700
201516,Tax year,National,K02000001,United Kingdom,2013/2014,1 YAG,Level 8,UK,"Media, journalism and communications",75,70,50,16500,29600,37300,16500,29600,37300
201516,Tax year,National,K02000001,United Kingdom,2013/2014,1 YAG,Level 8,UK,Medical sciences,205,200,150,28200,30700,41400,28200,30700,41400
201516,Tax year,National,K02000001,United Kingdom,2013/2014,1 YAG,Level 8,UK,Medicine and dentistry,1210,1165,870,30400,40300,68300,30400,40300,68300
201516,Tax year,National,K02000001,United Kingdom,2013/2014,1 YAG,Level 8,UK,Nursing and midwifery,75,70,50,27400,36600,46800,27400,36600,46800
201516,Tax year,National,K02000001,United Kingdom,2013/2014,1 YAG,Level 8,UK,Performing arts,175,170,120,11500,20500,32500,11500,20500,32500
201516,Tax year,National,K02000001,United Kingdom,2013/2014,1 YAG,Level 8,UK,"Pharmacology, toxicology and pharmacy",135,130,85,27800,31500,38800,27800,31500,38800
201516,Tax year,National,K02000001,United Kingdom,2013/2014,1 YAG,Level 8,UK,Philosophy and religious studies,185,175,110,15000,23400,31500,15000,23400,31500
201516,Tax year,National,K02000001,United Kingdom,2013/2014,1 YAG,Level 8,UK,Physics and astronomy,470,420,305,28200,31100,36200,28200,31100,36200
201516,Tax year,National,K02000001,United Kingdom,2013/2014,1 YAG,Level 8,UK,Politics,135,130,70,17100,29600,34800,17100,29600,34800
201516,Tax year,National,K02000001,United Kingdom,2013/2014,1 YAG,Level 8,UK,Psychology,985,965,725,26400,32200,37300,26400,32200,37300
201516,Tax year,National,K02000001,United Kingdom,2013/2014,1 YAG,Level 8,UK,"Sociology, social policy and anthropology",350,340,230,21200,30700,37700,21200,30700,37700
201516,Tax year,National,K02000001,United Kingdom,2013/2014,1 YAG,Level 8,UK,Sport and exercise sciences,90,85,60,28900,32900,38800,28900,32900,38800
201516,Tax year,National,K02000001,United Kingdom,2013/2014,1 YAG,Level 8,UK,Veterinary sciences,40,40,30,27100,30400,33100,27100,30400,33100
201617,Tax year,National,K02000001,United Kingdom,2005/2006,10 YAG,First-degree,UK,"Agriculture, food and related studies",1600,1560,1145,15700,24800,35000,15300,24300,34300
201617,Tax year,National,K02000001,United Kingdom,2005/2006,10 YAG,First-degree,UK,Allied health,7580,7370,5055,16400,26600,34700,16100,26000,33900
201617,Tax year,National,K02000001,United Kingdom,2005/2006,10 YAG,First-degree,UK,"Architecture, building and planning",4755,4580,3465,25600,36900,49600,25000,36000,48500
201617,Tax year,National,K02000001,United Kingdom,2005/2006,10 YAG,First-degree,UK,Biosciences,6750,6500,4695,20800,30700,40200,20300,30000,39200
201617,Tax year,National,K02000001,United Kingdom,2005/2006,10 YAG,First-degree,UK,Business and management,25450,24580,18310,20400,32100,47800,20000,31400,46700
201617,Tax year,National,K02000001,United Kingdom,2005/2006,10 YAG,First-degree,UK,Celtic studies,25,20,20,9900,28500,37200,9600,27800,36400
201617,Tax year,National,K02000001,United Kingdom,2005/2006,10 YAG,First-degree,UK,Chemistry,1945,1875,1425,25200,35000,45600,24600,34300,44600
201617,Tax year,National,K02000001,United Kingdom,2005/2006,10 YAG,First-degree,UK,Combined and general studies,7875,7625,4635,13400,25600,37600,13100,25000,36700
201617,Tax year,National,K02000001,United Kingdom,2005/2006,10 YAG,First-degree,UK,Computing,13660,13300,10200,21200,33900,48500,20700,33200,47500
201617,Tax year,National,K02000001,United Kingdom,2005/2006,10 YAG,First-degree,UK,Creative arts and design,17645,17100,12120,13500,23400,33600,13200,22800,32800
201617,Tax year,National,K02000001,United Kingdom,2005/2006,10 YAG,First-degree,UK,Economics,4190,3975,2975,31400,49300,77400,30700,48200,75600
201617,Tax year,National,K02000001,United Kingdom,2005/2006,10 YAG,First-degree,UK,Education and teaching,9685,9485,7335,15700,26300,34700,15300,25700,33900
201617,Tax year,National,K02000001,United Kingdom,2005/2006,10 YAG,First-degree,UK,Engineering,9370,8920,6700,29300,41200,54400,28700,40300,53200
201617,Tax year,National,K02000001,United Kingdom,2005/2006,10 YAG,First-degree,UK,English studies,9590,9260,6765,17500,27700,37200,17100,27100,36400
201617,Tax year,National,K02000001,United Kingdom,2005/2006,10 YAG,First-degree,UK,"General, applied and forensic sciences",1615,1565,1160,19300,28800,38300,18900,28200,37500
201617,Tax year,National,K02000001,United Kingdom,2005/2006,10 YAG,First-degree,UK,"Geography, earth and environmental studies",6755,6465,4930,22300,32500,43400,21800,31800,42500
201617,Tax year,National,K02000001,United Kingdom,2005/2006,10 YAG,First-degree,UK,Health and social care,3800,3750,2630,16100,27000,34300,15700,26400,33500
201617,Tax year,National,K02000001,United Kingdom,2005/2006,10 YAG,First-degree,UK,History and archaeology,9425,9115,6720,20100,30700,43400,19600,30000,42500
201617,Tax year,National,K02000001,United Kingdom,2005/2006,10 YAG,First-degree,UK,Languages and area studies,5600,5190,3500,19700,31400,44500,19300,30700,43500
201617,Tax year,National,K02000001,United Kingdom,2005/2006,10 YAG,First-degree,UK,Law,10410,10120,7410,21500,33900,51500,21100,33200,50300
201617,Tax year,National,K02000001,United Kingdom,2005/2006,10 YAG,First-degree,UK,Materials and technology,1750,1675,1220,19300,31800,44200,18900,31000,43200
201617,Tax year,National,K02000001,United Kingdom,2005/2006,10 YAG,First-degree,UK,Mathematical sciences,3915,3745,2840,27800,40200,61000,27200,39200,59600
201617,Tax year,National,K02000001,United Kingdom,2005/2006,10 YAG,First-degree,UK,"Media, journalism and communications",7195,6970,5300,17200,26600,36900,16800,26000,36000
201617,Tax year,National,K02000001,United Kingdom,2005/2006,10 YAG,First-degree,UK,Medical sciences,2340,2260,1560,24100,34300,46000,23500,33500,45000
201617,Tax year,National,K02000001,United Kingdom,2005/2006,10 YAG,First-degree,UK,Medicine and dentistry,5615,5435,3180,34300,54000,67900,33500,52800,66400
201617,Tax year,National,K02000001,United Kingdom,2005/2006,10 YAG,First-degree,UK,Nursing and midwifery,9470,9220,5895,20800,30300,37600,20300,29600,36700
201617,Tax year,National,K02000001,United Kingdom,2005/2006,10 YAG,First-degree,UK,Performing arts,7680,7460,5365,14200,23400,33600,13900,22800,32800
201617,Tax year,National,K02000001,United Kingdom,2005/2006,10 YAG,First-degree,UK,"Pharmacology, toxicology and pharmacy",1790,1755,1190,17200,31800,43800,16800,31000,42800
201617,Tax year,National,K02000001,United Kingdom,2005/2006,10 YAG,First-degree,UK,Philosophy and religious studies,2765,2655,1790,19000,29900,43100,18600,29300,42100
201617,Tax year,National,K02000001,United Kingdom,2005/2006,10 YAG,First-degree,UK,Physics and astronomy,2045,1935,1440,29900,39100,56200,29300,38200,54900
201617,Tax year,National,K02000001,United Kingdom,2005/2006,10 YAG,First-degree,UK,Politics,3820,3660,2610,23400,34700,50400,22800,33900,49200
201617,Tax year,National,K02000001,United Kingdom,2005/2006,10 YAG,First-degree,UK,Psychology,9670,9400,6630,17200,26300,35800,16800,25700,35000
201617,Tax year,National,K02000001,United Kingdom,2005/2006,10 YAG,First-degree,UK,"Sociology, social policy and anthropology",8470,8265,5980,16800,26300,35000,16400,25700,34300
201617,Tax year,National,K02000001,United Kingdom,2005/2006,10 YAG,First-degree,UK,Sport and exercise sciences,4990,4845,3875,21200,30300,38700,20700,29600,37800
201617,Tax year,National,K02000001,United Kingdom,2005/2006,10 YAG,First-degree,UK,Veterinary sciences,590,570,395,16800,30700,44900,16400,30000,43900
201617,Tax year,National,K02000001,United Kingdom,2005/2006,10 YAG,Level 7,UK,"Agriculture, food and related studies",355,345,215,19000,28800,42300,18600,28200,41400
201617,Tax year,National,K02000001,United Kingdom,2005/2006,10 YAG,Level 7,UK,Allied health,3405,3305,2060,18200,31900,43100,17800,31200,42100
201617,Tax year,National,K02000001,United Kingdom,2005/2006,10 YAG,Level 7,UK,"Architecture, building and planning",2955,2810,1980,22300,35800,50400,21800,35000,49200
201617,Tax year,National,K02000001,United Kingdom,2005/2006,10 YAG,Level 7,UK,Biosciences,950,915,610,23700,33600,42700,23200,32800,41700
201617,Tax year,National,K02000001,United Kingdom,2005/2006,10 YAG,Level 7,UK,Business and management,16330,15580,10155,25600,43100,68300,25000,42100,66700
201617,Tax year,National,K02000001,United Kingdom,2005/2006,10 YAG,Level 7,UK,Celtic studies,10,10,5,3100,4000,36100,3000,3900,35300
201617,Tax year,National,K02000001,United Kingdom,2005/2006,10 YAG,Level 7,UK,Chemistry,195,195,130,25200,34700,46400,24600,33900,45300
201617,Tax year,National,K02000001,United Kingdom,2005/2006,10 YAG,Level 7,UK,Combined and general studies,380,370,210,14600,25900,38700,14300,25300,37800
201617,Tax year,National,K02000001,United Kingdom,2005/2006,10 YAG,Level 7,UK,Computing,2555,2430,1640,23700,40200,58400,23200,39200,57100
201617,Tax year,National,K02000001,United Kingdom,2005/2006,10 YAG,Level 7,UK,Creative arts and design,2125,2030,1185,9100,20100,35000,8900,19600,34300
201617,Tax year,National,K02000001,United Kingdom,2005/2006,10 YAG,Level 7,UK,Economics,730,675,410,35800,57300,94500,35000,56000,92400
201617,Tax year,National,K02000001,United Kingdom,2005/2006,10 YAG,Level 7,UK,Education and teaching,8135,7880,5050,18600,34300,44900,18200,33500,43900
201617,Tax year,National,K02000001,United Kingdom,2005/2006,10 YAG,Level 7,UK,Engineering,2315,2175,1445,30700,46700,63900,30000,45700,62400
201617,Tax year,National,K02000001,United Kingdom,2005/2006,10 YAG,Level 7,UK,English studies,1545,1490,890,14600,26600,37600,14300,26000,36700
201617,Tax year,National,K02000001,United Kingdom,2005/2006,10 YAG,Level 7,UK,"General, applied and forensic sciences",505,490,325,19300,29200,38300,18900,28500,37500
201617,Tax year,National,K02000001,United Kingdom,2005/2006,10 YAG,Level 7,UK,"Geography, earth and environmental studies",1260,1170,775,23400,33900,48200,22800,33200,47100
201617,Tax year,National,K02000001,United Kingdom,2005/2006,10 YAG,Level 7,UK,Health and social care,1970,1930,1220,15300,29200,39800,15000,28500,38900
201617,Tax year,National,K02000001,United Kingdom,2005/2006,10 YAG,Level 7,UK,History and archaeology,1955,1875,1155,16800,28500,40200,16400,27800,39200
201617,Tax year,National,K02000001,United Kingdom,2005/2006,10 YAG,Level 7,UK,Languages and area studies,1065,975,545,13900,28500,40900,13600,27800,40000
201617,Tax year,National,K02000001,United Kingdom,2005/2006,10 YAG,Level 7,UK,Law,6330,6065,4090,24800,41600,70400,24300,40700,68900
201617,Tax year,National,K02000001,United Kingdom,2005/2006,10 YAG,Level 7,UK,MBA,20,20,15,21100,30700,48200,20600,30000,47100
201617,Tax year,National,K02000001,United Kingdom,2005/2006,10 YAG,Level 7,UK,Materials and technology,685,640,415,24600,40900,61000,24100,40000,59600
201617,Tax year,National,K02000001,United Kingdom,2005/2006,10 YAG,Level 7,UK,Mathematical sciences,505,475,310,29900,40900,69400,29300,40000,67800
201617,Tax year,National,K02000001,United Kingdom,2005/2006,10 YAG,Level 7,UK,"Media, journalism and communications",2130,2050,1320,17900,29900,39500,17500,29300,38600
201617,Tax year,National,K02000001,United Kingdom,2005/2006,10 YAG,Level 7,UK,Medical sciences,605,590,420,23400,36100,44500,22800,35300,43500
201617,Tax year,National,K02000001,United Kingdom,2005/2006,10 YAG,Level 7,UK,Medicine and dentistry,1695,1600,985,30300,46700,78500,29600,45700,76700
201617,Tax year,National,K02000001,United Kingdom,2005/2006,10 YAG,Level 7,UK,Nursing and midwifery,1735,1685,1095,21900,34300,43400,21400,33500,42500
201617,Tax year,National,K02000001,United Kingdom,2005/2006,10 YAG,Level 7,UK,PGCE,23700,22840,16945,18200,30700,38300,17800,30000,37500
201617,Tax year,National,K02000001,United Kingdom,2005/2006,10 YAG,Level 7,UK,Performing arts,1190,1140,720,10900,22100,34300,10600,21600,33500
201617,Tax year,National,K02000001,United Kingdom,2005/2006,10 YAG,Level 7,UK,"Pharmacology, toxicology and pharmacy",870,830,515,26300,39800,49300,25700,38900,48200
201617,Tax year,National,K02000001,United Kingdom,2005/2006,10 YAG,Level 7,UK,Philosophy and religious studies,675,645,350,14200,28500,41200,13900,27800,40300
201617,Tax year,National,K02000001,United Kingdom,2005/2006,10 YAG,Level 7,UK,Physics and astronomy,250,240,155,30700,38300,52600,30000,37500,51400
201617,Tax year,National,K02000001,United Kingdom,2005/2006,10 YAG,Level 7,UK,Politics,1425,1330,835,25200,39800,64200,24600,38900,62800
201617,Tax year,National,K02000001,United Kingdom,2005/2006,10 YAG,Level 7,UK,Psychology,2595,2490,1545,17200,30400,42400,16800,29700,41400
201617,Tax year,National,K02000001,United Kingdom,2005/2006,10 YAG,Level 7,UK,"Sociology, social policy and anthropology",2645,2525,1560,18600,32800,44500,18200,32100,43500
201617,Tax year,National,K02000001,United Kingdom,2005/2006,10 YAG,Level 7,UK,Sport and exercise sciences,335,330,220,19300,31800,43100,18900,31000,42100
201617,Tax year,National,K02000001,United Kingdom,2005/2006,10 YAG,Level 7,UK,Veterinary sciences,80,80,40,24800,40500,58400,24300,39600,57100
201617,Tax year,National,K02000001,United Kingdom,2005/2006,10 YAG,Level 8,UK,"Agriculture, food and related studies",70,65,40,20400,34700,40200,20000,33900,39200
201617,Tax year,National,K02000001,United Kingdom,2005/2006,10 YAG,Level 8,UK,Allied health,155,150,100,27600,45600,59500,27000,44600,58200
201617,Tax year,National,K02000001,United Kingdom,2005/2006,10 YAG,Level 8,UK,"Architecture, building and planning",55,50,30,29400,42700,48800,28700,41700,47700
201617,Tax year,National,K02000001,United Kingdom,2005/2006,10 YAG,Level 8,UK,Biosciences,875,815,480,29800,39400,50700,29100,38500,49600
201617,Tax year,National,K02000001,United Kingdom,2005/2006,10 YAG,Level 8,UK,Business and management,230,215,140,32500,48900,65600,31800,47800,64100
201617,Tax year,National,K02000001,United Kingdom,2005/2006,10 YAG,Level 8,UK,Celtic studies,5,5,0,16400,16400,31000,16100,16100,30300
201617,Tax year,National,K02000001,United Kingdom,2005/2006,10 YAG,Level 8,UK,Chemistry,550,520,345,32100,42300,55800,31400,41400,54600
201617,Tax year,National,K02000001,United Kingdom,2005/2006,10 YAG,Level 8,UK,Combined and general studies,40,40,30,16100,30500,40900,15700,29800,40000
201617,Tax year,National,K02000001,United Kingdom,2005/2006,10 YAG,Level 8,UK,Computing,260,245,150,34300,45100,72700,33500,44100,71100
201617,Tax year,National,K02000001,United Kingdom,2005/2006,10 YAG,Level 8,UK,Creative arts and design,90,85,55,15700,33900,44900,15300,33200,43900
201617,Tax year,National,K02000001,United Kingdom,2005/2006,10 YAG,Level 8,UK,Economics,60,55,35,40200,51500,70100,39200,50300,68500
201617,Tax year,National,K02000001,United Kingdom,2005/2006,10 YAG,Level 8,UK,Education and teaching,295,280,175,14200,35200,53700,13900,34400,52500
201617,Tax year,National,K02000001,United Kingdom,2005/2006,10 YAG,Level 8,UK,Engineering,630,595,385,35000,46400,62400,34300,45300,61000
201617,Tax year,National,K02000001,United Kingdom,2005/2006,10 YAG,Level 8,UK,English studies,205,195,115,20000,38700,47400,19600,37800,46400
201617,Tax year,National,K02000001,United Kingdom,2005/2006,10 YAG,Level 8,UK,"General, applied and forensic sciences",50,45,30,18200,33600,49900,17800,32900,48800
201617,Tax year,National,K02000001,United Kingdom,2005/2006,10 YAG,Level 8,UK,"Geography, earth and environmental studies",330,305,175,29900,37600,47100,29300,36700,46000
201617,Tax year,National,K02000001,United Kingdom,2005/2006,10 YAG,Level 8,UK,Health and social care,30,30,25,32800,48500,54000,32100,47500,52800
201617,Tax year,National,K02000001,United Kingdom,2005/2006,10 YAG,Level 8,UK,History and archaeology,350,325,195,22600,37200,48200,22100,36400,47100
201617,Tax year,National,K02000001,United Kingdom,2005/2006,10 YAG,Level 8,UK,Languages and area studies,165,160,90,22300,38000,46400,21800,37100,45300
201617,Tax year,National,K02000001,United Kingdom,2005/2006,10 YAG,Level 8,UK,Law,55,50,30,44900,54400,69700,43900,53200,68100
201617,Tax year,National,K02000001,United Kingdom,2005/2006,10 YAG,Level 8,UK,Materials and technology,125,110,75,33600,43400,58400,32800,42500,57100
201617,Tax year,National,K02000001,United Kingdom,2005/2006,10 YAG,Level 8,UK,Mathematical sciences,215,205,150,36100,44900,66800,35300,43900,65300
201617,Tax year,National,K02000001,United Kingdom,2005/2006,10 YAG,Level 8,UK,"Media, journalism and communications",35,35,20,7700,40500,46000,7500,39600,45000
201617,Tax year,National,K02000001,United Kingdom,2005/2006,10 YAG,Level 8,UK,Medical sciences,130,120,80,34200,43800,58700,33400,42800,57400
201617,Tax year,National,K02000001,United Kingdom,2005/2006,10 YAG,Level 8,UK,Medicine and dentistry,1140,1065,705,36900,61300,106600,36000,59900,104200
201617,Tax year,National,K02000001,United Kingdom,2005/2006,10 YAG,Level 8,UK,Nursing and midwifery,50,50,35,34700,45600,54400,33900,44600,53200
201617,Tax year,National,K02000001,United Kingdom,2005/2006,10 YAG,Level 8,UK,Performing arts,95,90,60,16300,34500,45400,15900,33700,44400
201617,Tax year,National,K02000001,United Kingdom,2005/2006,10 YAG,Level 8,UK,"Pharmacology, toxicology and pharmacy",160,150,95,33900,46000,63900,33200,45000,62400
